subject,trial,celeb_id,celeb_name,celeb_image,celeb_position,rand0_name,rand0_pos,rand1_name,rand1_pos,rand2_name,rand2_pos,rand3_name,rand3_pos,answer_celeb,answer_position,correct,rt
sub-21, trial51, 17, Ryan Gosling, ID17_IM01.bmp, (-300, 300), Ben Affleck, (550, -100), Justin Timberlake, (300, 300), Robert Downey Jr, (-550, -100), Elijah Wood, (0, -400), Ryan Gosling, [-199.  319.], 1, 3.339621900115162
sub-21, trial65, 01, Ben Affleck, ID01_IM02.bmp, (300, 300), Elijah Wood, (0, -400), Daniel Radcliffe, (-550, -100), Keanu Reeves, (550, -100), Hugh Jackman, (-300, 300), Ben Affleck, [174. 290.], 1, 1.4839574999641627
sub-21, trial66, 10, Keanu Reeves, ID10_IM01.bmp, (-550, -100), Justin Timberlake, (300, 300), Elijah Wood, (550, -100), Robert Downey Jr, (0, -400), Orlando Bloom, (-300, 300), familiar face, [  73. -113.], 1, 7.998375599971041
sub-21, trial50, 11, Leonardo DiCaprio, ID11_IM03.bmp, (550, -100), Robert Pattinson, (-300, 300), Hugh Jackman, (-550, -100), Brad Pitt, (0, -400), George Clooney, (300, 300), Leonardo DiCaprio, [ 519. -110.], 1, 3.6128084000665694
sub-21, trial15, 14, Patrick Dempsey, ID14_IM02.bmp, (0, -400), Ryan Gosling, (300, 300), Matt Damon, (-300, 300), Robert Downey Jr, (-550, -100), Hugh Jackman, (550, -100), familiar face, [ 32. -86.], 1, 6.298198399832472
sub-21, trial31, 12, Matt Damon, ID12_IM04.bmp, (300, 300), Elijah Wood, (0, -400), Ryan Reynolds, (-550, -100), Ryan Gosling, (550, -100), Patrick Dempsey, (-300, 300), Matt Damon, [206. 304.], 1, 1.907797999912873
sub-21, trial37, 06, Elijah Wood, ID06_IM03.bmp, (-300, 300), Patrick Dempsey, (-550, -100), Matt Damon, (300, 300), Robert Pattinson, (0, -400), Justin Timberlake, (550, -100), familiar face, [ -13. -105.], 1, 3.2368523001205176
sub-21, trial61, 14, Patrick Dempsey, ID14_IM04.bmp, (0, -400), Leonardo DiCaprio, (-300, 300), Robert Pattinson, (550, -100), Ryan Reynolds, (-550, -100), Brad Pitt, (300, 300), familiar face, [ 34. -89.], 1, 1.5511896000243723
sub-21, trial14, 08, Hugh Jackman, ID08_IM02.bmp, (550, -100), Daniel Radcliffe, (-300, 300), Ben Affleck, (0, -400), Robert Downey Jr, (300, 300), Orlando Bloom, (-550, -100), familiar face, [ 18. -89.], 1, 9.096123500028625
sub-21, trial72, 15, Robert Downey Jr, ID15_IM04.bmp, (300, 300), George Clooney, (550, -100), Elijah Wood, (0, -400), Ben Stiller, (-550, -100), Robert Pattinson, (-300, 300), Robert Downey Jr, [266. 300.], 1, 2.002704700222239
sub-21, trial71, 15, Robert Downey Jr, ID15_IM02.bmp, (550, -100), Leonardo DiCaprio, (-550, -100), Robert Pattinson, (0, -400), Orlando Bloom, (-300, 300), Daniel Radcliffe, (300, 300), Robert Downey Jr, [445. -91.], 1, 4.544068200048059
sub-21, trial6, 10, Keanu Reeves, ID10_IM03.bmp, (0, -400), Robert Pattinson, (-300, 300), Ben Stiller, (-550, -100), Leonardo DiCaprio, (550, -100), Patrick Dempsey, (300, 300), familiar face, [ 61. -94.], 1, 4.033053299877793
sub-21, trial1, 09, Justin Timberlake, ID09_IM04.bmp, (0, -400), Hugh Jackman, (-550, -100), George Clooney, (-300, 300), Robert Downey Jr, (550, -100), Elijah Wood, (300, 300), Justin Timberlake, [ -72. -415.], 1, 2.3639148001093417
sub-21, trial16, 12, Matt Damon, ID12_IM01.bmp, (550, -100), Ryan Gosling, (0, -400), Leonardo DiCaprio, (-550, -100), Daniel Craig, (-300, 300), Ben Affleck, (300, 300), Matt Damon, [ 415. -108.], 1, 2.683282099897042
sub-21, trial33, 09, Justin Timberlake, ID09_IM01.bmp, (550, -100), Robert Downey Jr, (-300, 300), Leonardo DiCaprio, (-550, -100), Daniel Craig, (300, 300), Patrick Dempsey, (0, -400), Justin Timberlake, [ 511. -100.], 1, 2.598465499933809
sub-21, trial25, 04, Daniel Craig, ID04_IM03.bmp, (300, 300), Ben Affleck, (-300, 300), Ryan Reynolds, (-550, -100), Matt Damon, (550, -100), Ben Stiller, (0, -400), familiar face, [ 111. -136.], 1, 5.284183499868959
sub-21, trial53, 11, Leonardo DiCaprio, ID11_IM02.bmp, (0, -400), Daniel Radcliffe, (-550, -100), Brad Pitt, (300, 300), Ben Stiller, (-300, 300), Keanu Reeves, (550, -100), Leonardo DiCaprio, [ -34. -390.], 1, 1.5507256998680532
sub-21, trial28, 14, Patrick Dempsey, ID14_IM03.bmp, (300, 300), Daniel Radcliffe, (-300, 300), Leonardo DiCaprio, (550, -100), Ryan Gosling, (0, -400), Ben Affleck, (-550, -100), familiar face, [  69. -129.], 1, 1.8952324001584202
sub-21, trial10, 09, Justin Timberlake, ID09_IM03.bmp, (550, -100), Hugh Jackman, (-550, -100), Robert Pattinson, (0, -400), Patrick Dempsey, (-300, 300), Leonardo DiCaprio, (300, 300), Justin Timberlake, [ 460. -125.], 1, 2.2004271000623703
sub-21, trial17, 07, George Clooney, ID07_IM03.bmp, (550, -100), Leonardo DiCaprio, (-550, -100), Daniel Craig, (300, 300), Matt Damon, (-300, 300), Ben Stiller, (0, -400), George Clooney, [461. -79.], 1, 2.062762500019744
sub-21, trial22, 18, Ryan Reynolds, ID18_IM02.bmp, (-550, -100), Brad Pitt, (550, -100), Leonardo DiCaprio, (-300, 300), Daniel Radcliffe, (300, 300), Hugh Jackman, (0, -400), Ryan Reynolds, [-389. -108.], 1, 1.5300943001639098
sub-21, trial43, 17, Ryan Gosling, ID17_IM04.bmp, (0, -400), Ryan Reynolds, (550, -100), Matt Damon, (-300, 300), Justin Timberlake, (300, 300), Elijah Wood, (-550, -100), Ryan Reynolds, [493. -99.], 0, 1.618825800018385
sub-21, trial40, 01, Ben Affleck, ID01_IM04.bmp, (-300, 300), Daniel Craig, (-550, -100), Robert Pattinson, (0, -400), Elijah Wood, (300, 300), Hugh Jackman, (550, -100), idk, [14. 40.], 0, 37.41786090005189
sub-21, trial62, 06, Elijah Wood, ID06_IM02.bmp, (550, -100), Leonardo DiCaprio, (-300, 300), Justin Timberlake, (0, -400), Keanu Reeves, (-550, -100), Ben Affleck, (300, 300), familiar face, [   5. -119.], 1, 1.3736129000317305
sub-21, trial20, 05, Daniel Radcliffe, ID05_IM01.bmp, (-300, 300), Robert Downey Jr, (550, -100), Orlando Bloom, (300, 300), Ryan Reynolds, (-550, -100), Ben Stiller, (0, -400), Daniel Radcliffe, [-183.  296.], 1, 2.3969939998351038
sub-21, trial2, 16, Robert Pattinson, ID16_IM04.bmp, (-550, -100), Ryan Gosling, (-300, 300), Orlando Bloom, (300, 300), Daniel Radcliffe, (550, -100), George Clooney, (0, -400), Robert Pattinson, [-468. -103.], 1, 2.9223666000179946
sub-21, trial69, 12, Matt Damon, ID12_IM03.bmp, (550, -100), Ben Affleck, (-550, -100), Ben Stiller, (-300, 300), Ryan Reynolds, (300, 300), Hugh Jackman, (0, -400), Matt Damon, [ 479. -110.], 1, 1.1319356998428702
sub-21, trial67, 09, Justin Timberlake, ID09_IM02.bmp, (0, -400), Ben Affleck, (-300, 300), Brad Pitt, (-550, -100), Robert Downey Jr, (550, -100), Ryan Gosling, (300, 300), Justin Timberlake, [  14. -374.], 1, 1.2761131001170725
sub-21, trial35, 02, Ben Stiller, ID02_IM02.bmp, (0, -400), Brad Pitt, (300, 300), Ryan Reynolds, (-550, -100), Elijah Wood, (-300, 300), Robert Pattinson, (550, -100), familiar face, [ -84. -114.], 1, 4.591060600010678
sub-21, trial12, 11, Leonardo DiCaprio, ID11_IM01.bmp, (-300, 300), Hugh Jackman, (0, -400), Elijah Wood, (-550, -100), Ryan Reynolds, (550, -100), Ben Stiller, (300, 300), Leonardo DiCaprio, [-178.  333.], 1, 1.2132393999490887
sub-21, trial42, 16, Robert Pattinson, ID16_IM01.bmp, (300, 300), Daniel Craig, (-300, 300), Matt Damon, (-550, -100), Keanu Reeves, (550, -100), Hugh Jackman, (0, -400), Robert Pattinson, [212. 305.], 1, 1.930651699891314
sub-21, trial58, 17, Ryan Gosling, ID17_IM03.bmp, (-550, -100), Ben Affleck, (300, 300), Daniel Craig, (550, -100), Ryan Reynolds, (0, -400), Brad Pitt, (-300, 300), Ryan Gosling, [-430.  -84.], 1, 1.227239399915561
sub-21, trial27, 13, Orlando Bloom, ID13_IM02.bmp, (0, -400), Ryan Gosling, (300, 300), Robert Downey Jr, (550, -100), Keanu Reeves, (-550, -100), Elijah Wood, (-300, 300), familiar face, [ -22. -128.], 1, 3.1517458998132497
sub-21, trial36, 15, Robert Downey Jr, ID15_IM01.bmp, (-550, -100), Hugh Jackman, (-300, 300), Ryan Gosling, (0, -400), Keanu Reeves, (300, 300), Elijah Wood, (550, -100), Robert Downey Jr, [-413.  -80.], 1, 2.3749683999922127
sub-21, trial21, 03, Brad Pitt, ID03_IM01.bmp, (-550, -100), Ryan Gosling, (0, -400), Robert Downey Jr, (300, 300), Hugh Jackman, (-300, 300), George Clooney, (550, -100), Brad Pitt, [-452.  -85.], 1, 1.078100600047037
sub-21, trial46, 05, Daniel Radcliffe, ID05_IM03.bmp, (-550, -100), Brad Pitt, (550, -100), Justin Timberlake, (0, -400), Orlando Bloom, (-300, 300), Matt Damon, (300, 300), Daniel Radcliffe, [-491. -105.], 1, 1.312238500220701
sub-21, trial56, 04, Daniel Craig, ID04_IM04.bmp, (0, -400), Justin Timberlake, (-300, 300), Elijah Wood, (-550, -100), Orlando Bloom, (550, -100), Patrick Dempsey, (300, 300), familiar face, [  10. -114.], 1, 3.658028299920261
sub-21, trial29, 18, Ryan Reynolds, ID18_IM03.bmp, (-550, -100), George Clooney, (550, -100), Leonardo DiCaprio, (-300, 300), Robert Pattinson, (0, -400), Matt Damon, (300, 300), Ryan Reynolds, [-429.  -83.], 1, 1.214217800181359
sub-21, trial30, 16, Robert Pattinson, ID16_IM02.bmp, (300, 300), Daniel Craig, (550, -100), Robert Downey Jr, (0, -400), Matt Damon, (-550, -100), Daniel Radcliffe, (-300, 300), idk, [-35.  45.], 0, 14.874313100008294
sub-21, trial57, 05, Daniel Radcliffe, ID05_IM02.bmp, (-550, -100), Daniel Craig, (300, 300), Leonardo DiCaprio, (0, -400), Hugh Jackman, (-300, 300), Orlando Bloom, (550, -100), familiar face, [-23. -87.], 1, 1.4774519000202417
sub-21, trial39, 13, Orlando Bloom, ID13_IM03.bmp, (0, -400), Ben Affleck, (300, 300), Robert Downey Jr, (-300, 300), Ryan Reynolds, (550, -100), Leonardo DiCaprio, (-550, -100), Orlando Bloom, [ -11. -391.], 1, 2.85551210003905
sub-21, trial70, 08, Hugh Jackman, ID08_IM03.bmp, (-550, -100), Robert Pattinson, (-300, 300), Leonardo DiCaprio, (300, 300), Keanu Reeves, (550, -100), Robert Downey Jr, (0, -400), familiar face, [   3. -111.], 1, 5.811346000060439
sub-21, trial44, 07, George Clooney, ID07_IM02.bmp, (550, -100), Leonardo DiCaprio, (0, -400), Ryan Reynolds, (300, 300), Justin Timberlake, (-550, -100), Ben Affleck, (-300, 300), George Clooney, [478. -96.], 1, 1.5043322001583874
sub-21, trial55, 18, Ryan Reynolds, ID18_IM04.bmp, (-300, 300), Leonardo DiCaprio, (550, -100), Brad Pitt, (-550, -100), Robert Pattinson, (300, 300), Patrick Dempsey, (0, -400), Ryan Reynolds, [-338.  288.], 1, 4.034345000050962
sub-21, trial4, 12, Matt Damon, ID12_IM02.bmp, (300, 300), Patrick Dempsey, (0, -400), George Clooney, (-550, -100), Hugh Jackman, (550, -100), Ben Stiller, (-300, 300), Matt Damon, [217. 288.], 1, 0.9262643000110984
sub-21, trial60, 07, George Clooney, ID07_IM04.bmp, (-550, -100), Orlando Bloom, (300, 300), Elijah Wood, (0, -400), Justin Timberlake, (-300, 300), Ryan Gosling, (550, -100), George Clooney, [-465.  -76.], 1, 5.255263100145385
sub-21, trial8, 08, Hugh Jackman, ID08_IM01.bmp, (300, 300), Patrick Dempsey, (-550, -100), Elijah Wood, (0, -400), Ben Stiller, (550, -100), Robert Downey Jr, (-300, 300), familiar face, [-104. -138.], 1, 1.0272519998252392
sub-21, trial45, 10, Keanu Reeves, ID10_IM04.bmp, (0, -400), Elijah Wood, (300, 300), Matt Damon, (-300, 300), Ryan Reynolds, (-550, -100), George Clooney, (550, -100), familiar face, [-104. -138.], 1, 0.9101064999122173
sub-21, trial49, 10, Keanu Reeves, ID10_IM02.bmp, (-300, 300), Daniel Craig, (550, -100), Daniel Radcliffe, (-550, -100), Elijah Wood, (0, -400), Ben Stiller, (300, 300), familiar face, [-105. -137.], 1, 0.6581623000092804
sub-21, trial47, 18, Ryan Reynolds, ID18_IM01.bmp, (-550, -100), Orlando Bloom, (300, 300), Justin Timberlake, (0, -400), Elijah Wood, (550, -100), Daniel Radcliffe, (-300, 300), Ryan Reynolds, [-409.  -87.], 1, 1.2449449999257922
sub-21, trial18, 03, Brad Pitt, ID03_IM03.bmp, (550, -100), George Clooney, (300, 300), Daniel Craig, (-550, -100), Daniel Radcliffe, (-300, 300), Ryan Reynolds, (0, -400), Brad Pitt, [398. -90.], 1, 2.0404592000413686
sub-21, trial5, 03, Brad Pitt, ID03_IM04.bmp, (0, -400), Ben Stiller, (-550, -100), Orlando Bloom, (300, 300), Ryan Gosling, (-300, 300), Leonardo DiCaprio, (550, -100), Brad Pitt, [  37. -394.], 1, 2.27612919989042
sub-21, trial34, 06, Elijah Wood, ID06_IM01.bmp, (300, 300), Ben Affleck, (-300, 300), Matt Damon, (550, -100), George Clooney, (-550, -100), Ben Stiller, (0, -400), familiar face, [  21. -126.], 1, 0.6712825999129564
sub-21, trial32, 14, Patrick Dempsey, ID14_IM01.bmp, (550, -100), Matt Damon, (-550, -100), Hugh Jackman, (-300, 300), Ben Stiller, (0, -400), Keanu Reeves, (300, 300), familiar face, [  18. -123.], 1, 0.8423108998686075
sub-21, trial13, 07, George Clooney, ID07_IM01.bmp, (-550, -100), Keanu Reeves, (-300, 300), Robert Downey Jr, (300, 300), Justin Timberlake, (0, -400), Ben Affleck, (550, -100), George Clooney, [-424.  -92.], 1, 0.9178983001038432
sub-21, trial23, 04, Daniel Craig, ID04_IM02.bmp, (550, -100), George Clooney, (-550, -100), Keanu Reeves, (300, 300), Justin Timberlake, (0, -400), Robert Pattinson, (-300, 300), familiar face, [ -45. -148.], 1, 0.9511764000635594
sub-21, trial24, 04, Daniel Craig, ID04_IM01.bmp, (-550, -100), Orlando Bloom, (0, -400), Keanu Reeves, (550, -100), Ben Affleck, (300, 300), Matt Damon, (-300, 300), familiar face, [ -45. -146.], 1, 0.49554599984548986
sub-21, trial68, 17, Ryan Gosling, ID17_IM02.bmp, (0, -400), Robert Pattinson, (550, -100), Elijah Wood, (-550, -100), Leonardo DiCaprio, (300, 300), Orlando Bloom, (-300, 300), Ryan Gosling, [  21. -406.], 1, 2.1774339999537915
sub-21, trial26, 15, Robert Downey Jr, ID15_IM03.bmp, (-550, -100), Robert Pattinson, (550, -100), Hugh Jackman, (0, -400), Daniel Craig, (-300, 300), Daniel Radcliffe, (300, 300), Robert Downey Jr, [-460.  -64.], 1, 4.840063099982217
sub-21, trial19, 05, Daniel Radcliffe, ID05_IM04.bmp, (-550, -100), Leonardo DiCaprio, (0, -400), Ben Stiller, (-300, 300), Patrick Dempsey, (550, -100), Justin Timberlake, (300, 300), Daniel Radcliffe, [-446.  -73.], 1, 2.3965615001507103
sub-21, trial3, 03, Brad Pitt, ID03_IM02.bmp, (300, 300), Elijah Wood, (0, -400), Robert Downey Jr, (550, -100), Daniel Craig, (-300, 300), Ben Affleck, (-550, -100), Brad Pitt, [205. 301.], 1, 1.8261342998594046
sub-21, trial41, 02, Ben Stiller, ID02_IM03.bmp, (-550, -100), Ryan Gosling, (300, 300), Daniel Radcliffe, (550, -100), Patrick Dempsey, (-300, 300), Orlando Bloom, (0, -400), familiar face, [ -55. -139.], 1, 0.6466693999245763
sub-21, trial38, 01, Ben Affleck, ID01_IM01.bmp, (0, -400), Daniel Craig, (-550, -100), Hugh Jackman, (550, -100), Justin Timberlake, (300, 300), Brad Pitt, (-300, 300), Ben Affleck, [  35. -355.], 1, 1.8278735999483615
sub-21, trial48, 16, Robert Pattinson, ID16_IM03.bmp, (550, -100), Daniel Craig, (-300, 300), Ben Stiller, (300, 300), Robert Downey Jr, (0, -400), Keanu Reeves, (-550, -100), Robert Pattinson, [ 438. -140.], 1, 1.785063099814579
sub-21, trial59, 02, Ben Stiller, ID02_IM01.bmp, (-550, -100), Patrick Dempsey, (550, -100), Ryan Gosling, (0, -400), Keanu Reeves, (300, 300), Ben Affleck, (-300, 300), familiar face, [ -18. -135.], 1, 1.4540983999613672
sub-21, trial9, 02, Ben Stiller, ID02_IM04.bmp, (-300, 300), Matt Damon, (0, -400), Daniel Radcliffe, (300, 300), Daniel Craig, (550, -100), Keanu Reeves, (-550, -100), familiar face, [ -18. -127.], 1, 1.1456929999403656
sub-21, trial54, 08, Hugh Jackman, ID08_IM04.bmp, (-550, -100), Ryan Reynolds, (0, -400), George Clooney, (300, 300), Ben Affleck, (550, -100), Ben Stiller, (-300, 300), familiar face, [ -19. -125.], 1, 1.2933342999313027
sub-21, trial63, 06, Elijah Wood, ID06_IM04.bmp, (300, 300), Justin Timberlake, (0, -400), Leonardo DiCaprio, (-300, 300), Hugh Jackman, (-550, -100), Robert Pattinson, (550, -100), familiar face, [ -19. -125.], 1, 1.6824825999792665
sub-21, trial52, 13, Orlando Bloom, ID13_IM04.bmp, (550, -100), Matt Damon, (300, 300), Justin Timberlake, (0, -400), Hugh Jackman, (-300, 300), Brad Pitt, (-550, -100), Orlando Bloom, [ 422. -109.], 1, 2.302437199978158
sub-21, trial64, 01, Ben Affleck, ID01_IM03.bmp, (0, -400), Robert Pattinson, (-550, -100), Matt Damon, (300, 300), Brad Pitt, (-300, 300), Daniel Craig, (550, -100), Ben Affleck, [   3. -398.], 1, 0.903749099932611
sub-21, trial7, 11, Leonardo DiCaprio, ID11_IM04.bmp, (-550, -100), Orlando Bloom, (-300, 300), Daniel Craig, (550, -100), Matt Damon, (0, -400), Brad Pitt, (300, 300), Leonardo DiCaprio, [-439.  -96.], 1, 3.145055199973285
sub-21, trial11, 13, Orlando Bloom, ID13_IM01.bmp, (550, -100), Patrick Dempsey, (-300, 300), Ryan Gosling, (300, 300), Ben Affleck, (-550, -100), Ben Stiller, (0, -400), familiar face, [   2. -112.], 1, 2.5295130000449717
