subject,trial,celeb_id,celeb_name,celeb_image,celeb_position,rand0_name,rand0_pos,rand1_name,rand1_pos,rand2_name,rand2_pos,rand3_name,rand3_pos,answer_celeb,answer_position,correct,rt
sub-05, trial3, 15, Robert Downey Jr, ID15_IM04.bmp, (-550, -100), Orlando Bloom, (550, -100), Daniel Radcliffe, (-300, 300), Ben Affleck, (300, 300), Robert Pattinson, (0, -400), Robert Downey Jr, [-604.  -92.], 1, 1.7380798000376672
sub-05, trial62, 16, Robert Pattinson, ID16_IM03.bmp, (-550, -100), Daniel Radcliffe, (300, 300), Leonardo DiCaprio, (-300, 300), Elijah Wood, (550, -100), Justin Timberlake, (0, -400), Robert Pattinson, [-423.  -78.], 1, 3.258774299873039
sub-05, trial1, 13, Orlando Bloom, ID13_IM04.bmp, (550, -100), Matt Damon, (0, -400), Patrick Dempsey, (-550, -100), Ben Affleck, (-300, 300), George Clooney, (300, 300), Orlando Bloom, [430. -75.], 1, 2.6856398000381887
sub-05, trial38, 10, Keanu Reeves, ID10_IM04.bmp, (0, -400), Patrick Dempsey, (-550, -100), Orlando Bloom, (300, 300), Ben Affleck, (-300, 300), Brad Pitt, (550, -100), Keanu Reeves, [  87. -366.], 1, 1.8725709000136703
sub-05, trial9, 10, Keanu Reeves, ID10_IM01.bmp, (550, -100), Ryan Gosling, (-300, 300), Hugh Jackman, (-550, -100), Robert Pattinson, (300, 300), Daniel Craig, (0, -400), Keanu Reeves, [427. -94.], 1, 3.723570799920708
sub-05, trial4, 15, Robert Downey Jr, ID15_IM02.bmp, (0, -400), Robert Pattinson, (550, -100), Patrick Dempsey, (-300, 300), George Clooney, (300, 300), Daniel Craig, (-550, -100), Robert Downey Jr, [ 102. -393.], 1, 2.10881599993445
sub-05, trial46, 17, Ryan Gosling, ID17_IM03.bmp, (-550, -100), Daniel Radcliffe, (0, -400), Brad Pitt, (300, 300), Ben Stiller, (550, -100), George Clooney, (-300, 300), Ryan Gosling, [-442. -110.], 1, 2.662167200120166
sub-05, trial16, 02, Ben Stiller, ID02_IM01.bmp, (-550, -100), Brad Pitt, (0, -400), Hugh Jackman, (-300, 300), Orlando Bloom, (300, 300), Ryan Reynolds, (550, -100), familiar face, [-56. -99.], 1, 3.5380593000445515
sub-05, trial66, 01, Ben Affleck, ID01_IM03.bmp, (550, -100), Daniel Radcliffe, (-300, 300), Justin Timberlake, (0, -400), Daniel Craig, (-550, -100), Robert Downey Jr, (300, 300), familiar face, [ 18. -93.], 1, 2.40994739998132
sub-05, trial52, 06, Elijah Wood, ID06_IM02.bmp, (0, -400), Ben Stiller, (-300, 300), Justin Timberlake, (550, -100), Leonardo DiCaprio, (300, 300), Keanu Reeves, (-550, -100), Elijah Wood, [  79. -403.], 1, 2.5911966001149267
sub-05, trial22, 15, Robert Downey Jr, ID15_IM01.bmp, (0, -400), Matt Damon, (300, 300), Patrick Dempsey, (550, -100), Ben Stiller, (-300, 300), Orlando Bloom, (-550, -100), Robert Downey Jr, [ 115. -383.], 1, 2.221038900082931
sub-05, trial17, 13, Orlando Bloom, ID13_IM01.bmp, (-300, 300), Ryan Gosling, (300, 300), Justin Timberlake, (0, -400), Leonardo DiCaprio, (-550, -100), Brad Pitt, (550, -100), Orlando Bloom, [-233.  313.], 1, 2.0743279999587685
sub-05, trial43, 06, Elijah Wood, ID06_IM01.bmp, (300, 300), Brad Pitt, (0, -400), Orlando Bloom, (-550, -100), Leonardo DiCaprio, (550, -100), Justin Timberlake, (-300, 300), Elijah Wood, [275. 281.], 1, 1.301493699895218
sub-05, trial20, 10, Keanu Reeves, ID10_IM02.bmp, (0, -400), Robert Downey Jr, (550, -100), Orlando Bloom, (-300, 300), Daniel Craig, (300, 300), Ben Affleck, (-550, -100), Keanu Reeves, [  99. -383.], 1, 2.5193252998869866
sub-05, trial33, 08, Hugh Jackman, ID08_IM01.bmp, (-550, -100), Orlando Bloom, (-300, 300), Leonardo DiCaprio, (0, -400), Ryan Reynolds, (550, -100), Patrick Dempsey, (300, 300), Hugh Jackman, [-419. -119.], 1, 1.2332389999646693
sub-05, trial13, 07, George Clooney, ID07_IM04.bmp, (-550, -100), Ryan Reynolds, (-300, 300), Brad Pitt, (0, -400), Orlando Bloom, (300, 300), Daniel Craig, (550, -100), George Clooney, [-424.  -90.], 1, 3.4290500001516193
sub-05, trial50, 12, Matt Damon, ID12_IM03.bmp, (550, -100), Robert Pattinson, (300, 300), Patrick Dempsey, (-550, -100), Ben Affleck, (0, -400), Daniel Craig, (-300, 300), Matt Damon, [427. -77.], 1, 2.233664100058377
sub-05, trial57, 18, Ryan Reynolds, ID18_IM03.bmp, (300, 300), Ben Stiller, (-550, -100), Hugh Jackman, (-300, 300), Justin Timberlake, (0, -400), Robert Downey Jr, (550, -100), Ryan Reynolds, [290. 304.], 1, 5.606312999967486
sub-05, trial68, 05, Daniel Radcliffe, ID05_IM04.bmp, (-300, 300), Matt Damon, (-550, -100), Keanu Reeves, (550, -100), Brad Pitt, (300, 300), Orlando Bloom, (0, -400), Daniel Radcliffe, [-194.  263.], 1, 1.0437886000145227
sub-05, trial59, 09, Justin Timberlake, ID09_IM04.bmp, (0, -400), George Clooney, (-550, -100), Matt Damon, (-300, 300), Ben Stiller, (300, 300), Daniel Radcliffe, (550, -100), familiar face, [  -9. -105.], 1, 3.368466100189835
sub-05, trial63, 08, Hugh Jackman, ID08_IM02.bmp, (300, 300), Keanu Reeves, (-550, -100), Orlando Bloom, (-300, 300), Matt Damon, (550, -100), Elijah Wood, (0, -400), Hugh Jackman, [223. 298.], 1, 1.4950373000465333
sub-05, trial36, 04, Daniel Craig, ID04_IM03.bmp, (-300, 300), Robert Pattinson, (550, -100), Keanu Reeves, (-550, -100), Orlando Bloom, (0, -400), Ben Stiller, (300, 300), Daniel Craig, [-313.  287.], 1, 1.5532031999900937
sub-05, trial27, 11, Leonardo DiCaprio, ID11_IM01.bmp, (-550, -100), Daniel Craig, (300, 300), Robert Downey Jr, (0, -400), Hugh Jackman, (-300, 300), Ben Affleck, (550, -100), Leonardo DiCaprio, [-411.  -97.], 1, 0.8733383999206126
sub-05, trial72, 05, Daniel Radcliffe, ID05_IM03.bmp, (-550, -100), George Clooney, (-300, 300), Robert Pattinson, (0, -400), Orlando Bloom, (550, -100), Keanu Reeves, (300, 300), Daniel Radcliffe, [-431.  -68.], 1, 1.7962272998411208
sub-05, trial48, 18, Ryan Reynolds, ID18_IM01.bmp, (-550, -100), Ryan Gosling, (300, 300), Ben Stiller, (0, -400), Daniel Craig, (-300, 300), Leonardo DiCaprio, (550, -100), Ryan Gosling, [325. 307.], 0, 1.6420753998681903
sub-05, trial29, 02, Ben Stiller, ID02_IM03.bmp, (-300, 300), Robert Downey Jr, (300, 300), Leonardo DiCaprio, (-550, -100), Daniel Radcliffe, (550, -100), Matt Damon, (0, -400), familiar face, [ 80. -87.], 1, 2.037743200082332
sub-05, trial2, 03, Brad Pitt, ID03_IM01.bmp, (-300, 300), Justin Timberlake, (300, 300), Robert Downey Jr, (550, -100), Keanu Reeves, (-550, -100), Leonardo DiCaprio, (0, -400), Brad Pitt, [-256.  280.], 1, 2.5062780999578536
sub-05, trial58, 18, Ryan Reynolds, ID18_IM04.bmp, (0, -400), Ryan Gosling, (550, -100), George Clooney, (300, 300), Brad Pitt, (-550, -100), Justin Timberlake, (-300, 300), Ryan Reynolds, [ -11. -391.], 1, 2.3639436000958085
sub-05, trial61, 16, Robert Pattinson, ID16_IM01.bmp, (550, -100), George Clooney, (0, -400), Patrick Dempsey, (-550, -100), Ryan Gosling, (-300, 300), Hugh Jackman, (300, 300), Robert Pattinson, [420. -78.], 1, 1.826785699930042
sub-05, trial32, 13, Orlando Bloom, ID13_IM02.bmp, (0, -400), Leonardo DiCaprio, (550, -100), Ryan Reynolds, (300, 300), Patrick Dempsey, (-550, -100), Elijah Wood, (-300, 300), Orlando Bloom, [  18. -361.], 1, 1.2231791000813246
sub-05, trial14, 12, Matt Damon, ID12_IM02.bmp, (0, -400), Justin Timberlake, (550, -100), Robert Downey Jr, (300, 300), Ben Affleck, (-300, 300), Ryan Reynolds, (-550, -100), Matt Damon, [ 157. -360.], 1, 2.467741900123656
sub-05, trial51, 04, Daniel Craig, ID04_IM01.bmp, (-300, 300), Ryan Gosling, (300, 300), Justin Timberlake, (0, -400), George Clooney, (-550, -100), Elijah Wood, (550, -100), Daniel Craig, [-187.  281.], 1, 0.9024282000027597
sub-05, trial56, 13, Orlando Bloom, ID13_IM03.bmp, (-300, 300), Elijah Wood, (0, -400), Ryan Gosling, (-550, -100), Hugh Jackman, (550, -100), Ryan Reynolds, (300, 300), Orlando Bloom, [-270.  264.], 1, 3.336554499808699
sub-05, trial53, 11, Leonardo DiCaprio, ID11_IM03.bmp, (-300, 300), Ryan Reynolds, (550, -100), Orlando Bloom, (300, 300), Daniel Radcliffe, (-550, -100), Elijah Wood, (0, -400), Leonardo DiCaprio, [-238.  301.], 1, 2.4484468000009656
sub-05, trial8, 02, Ben Stiller, ID02_IM04.bmp, (-300, 300), Elijah Wood, (550, -100), Brad Pitt, (0, -400), Hugh Jackman, (-550, -100), Leonardo DiCaprio, (300, 300), familiar face, [ 16. -92.], 1, 2.358435499947518
sub-05, trial12, 07, George Clooney, ID07_IM02.bmp, (300, 300), Elijah Wood, (-550, -100), Patrick Dempsey, (550, -100), Brad Pitt, (0, -400), Ben Affleck, (-300, 300), George Clooney, [202. 320.], 1, 1.8367018001154065
sub-05, trial47, 08, Hugh Jackman, ID08_IM03.bmp, (550, -100), Ryan Gosling, (-550, -100), Justin Timberlake, (-300, 300), Robert Downey Jr, (0, -400), George Clooney, (300, 300), Hugh Jackman, [413. -79.], 1, 1.560467700008303
sub-05, trial39, 03, Brad Pitt, ID03_IM02.bmp, (300, 300), Robert Downey Jr, (-300, 300), Ryan Reynolds, (550, -100), Orlando Bloom, (-550, -100), Hugh Jackman, (0, -400), Brad Pitt, [259. 295.], 1, 1.4973169001750648
sub-05, trial10, 09, Justin Timberlake, ID09_IM03.bmp, (300, 300), Leonardo DiCaprio, (0, -400), Ryan Reynolds, (-550, -100), Orlando Bloom, (550, -100), Daniel Radcliffe, (-300, 300), Justin Timberlake, [288. 285.], 1, 2.2103017999324948
sub-05, trial34, 17, Ryan Gosling, ID17_IM01.bmp, (0, -400), Ben Affleck, (-550, -100), Leonardo DiCaprio, (-300, 300), Robert Pattinson, (550, -100), Justin Timberlake, (300, 300), Ryan Gosling, [ -23. -378.], 1, 4.134757400024682
sub-05, trial70, 10, Keanu Reeves, ID10_IM03.bmp, (-300, 300), Elijah Wood, (300, 300), Hugh Jackman, (0, -400), George Clooney, (550, -100), Robert Pattinson, (-550, -100), Keanu Reeves, [-276.  275.], 1, 1.0156215000897646
sub-05, trial25, 18, Ryan Reynolds, ID18_IM02.bmp, (-550, -100), Ryan Gosling, (0, -400), Patrick Dempsey, (-300, 300), Robert Pattinson, (300, 300), Orlando Bloom, (550, -100), Ryan Reynolds, [-462. -105.], 1, 3.980495899915695
sub-05, trial11, 14, Patrick Dempsey, ID14_IM01.bmp, (300, 300), Matt Damon, (0, -400), Keanu Reeves, (550, -100), George Clooney, (-550, -100), Ryan Reynolds, (-300, 300), idk, [-26.  44.], 0, 1.2912223997991532
sub-05, trial31, 07, George Clooney, ID07_IM01.bmp, (-550, -100), Hugh Jackman, (-300, 300), Daniel Craig, (550, -100), Justin Timberlake, (300, 300), Ben Stiller, (0, -400), George Clooney, [-426.  -84.], 1, 1.644492099992931
sub-05, trial35, 04, Daniel Craig, ID04_IM02.bmp, (300, 300), Hugh Jackman, (-300, 300), Daniel Radcliffe, (550, -100), Patrick Dempsey, (-550, -100), Orlando Bloom, (0, -400), Daniel Craig, [209. 303.], 1, 1.296984100015834
sub-05, trial26, 12, Matt Damon, ID12_IM01.bmp, (-550, -100), Ryan Gosling, (300, 300), Daniel Craig, (-300, 300), Robert Downey Jr, (550, -100), Orlando Bloom, (0, -400), Matt Damon, [-413. -116.], 1, 1.7710404999088496
sub-05, trial64, 08, Hugh Jackman, ID08_IM04.bmp, (550, -100), Ben Affleck, (0, -400), Robert Pattinson, (-300, 300), Ben Stiller, (300, 300), Robert Downey Jr, (-550, -100), Hugh Jackman, [430. -78.], 1, 1.5862150001339614
sub-05, trial55, 05, Daniel Radcliffe, ID05_IM02.bmp, (-300, 300), Matt Damon, (300, 300), Brad Pitt, (-550, -100), Keanu Reeves, (0, -400), Robert Pattinson, (550, -100), Daniel Radcliffe, [-280.  294.], 1, 0.7443464000243694
sub-05, trial69, 03, Brad Pitt, ID03_IM04.bmp, (0, -400), Robert Pattinson, (550, -100), Keanu Reeves, (-300, 300), Hugh Jackman, (300, 300), Ben Stiller, (-550, -100), Brad Pitt, [ -28. -391.], 1, 1.8726611000020057
sub-05, trial67, 15, Robert Downey Jr, ID15_IM03.bmp, (300, 300), Patrick Dempsey, (0, -400), Leonardo DiCaprio, (-550, -100), Daniel Radcliffe, (-300, 300), Elijah Wood, (550, -100), Robert Downey Jr, [216. 281.], 1, 1.3881920001003891
sub-05, trial24, 14, Patrick Dempsey, ID14_IM03.bmp, (0, -400), Ryan Gosling, (550, -100), Leonardo DiCaprio, (-550, -100), Orlando Bloom, (-300, 300), Ben Stiller, (300, 300), idk, [-17.  58.], 0, 1.3462179000489414
sub-05, trial5, 17, Ryan Gosling, ID17_IM04.bmp, (300, 300), Robert Pattinson, (-300, 300), Daniel Radcliffe, (0, -400), Orlando Bloom, (550, -100), Justin Timberlake, (-550, -100), Ryan Gosling, [313. 290.], 1, 2.506305400049314
sub-05, trial65, 17, Ryan Gosling, ID17_IM02.bmp, (-300, 300), Robert Downey Jr, (0, -400), Ben Affleck, (300, 300), Ryan Reynolds, (550, -100), Leonardo DiCaprio, (-550, -100), Ryan Gosling, [-226.  288.], 1, 4.812847200082615
sub-05, trial7, 01, Ben Affleck, ID01_IM01.bmp, (-550, -100), Robert Pattinson, (-300, 300), Keanu Reeves, (0, -400), Robert Downey Jr, (300, 300), Hugh Jackman, (550, -100), Ben Affleck, [-405. -112.], 1, 2.025356100173667
sub-05, trial6, 14, Patrick Dempsey, ID14_IM02.bmp, (550, -100), Orlando Bloom, (0, -400), Robert Pattinson, (300, 300), Hugh Jackman, (-550, -100), Robert Downey Jr, (-300, 300), idk, [-3. 52.], 0, 0.8382508000358939
sub-05, trial18, 02, Ben Stiller, ID02_IM02.bmp, (-300, 300), Ben Affleck, (300, 300), Matt Damon, (550, -100), Robert Pattinson, (0, -400), Hugh Jackman, (-550, -100), familiar face, [ 24. -88.], 1, 1.2425340998452157
sub-05, trial23, 09, Justin Timberlake, ID09_IM01.bmp, (-300, 300), Daniel Radcliffe, (300, 300), Keanu Reeves, (550, -100), George Clooney, (-550, -100), Patrick Dempsey, (0, -400), Justin Timberlake, [-306.  303.], 1, 2.9584469001274556
sub-05, trial54, 14, Patrick Dempsey, ID14_IM04.bmp, (550, -100), Ben Stiller, (0, -400), Ben Affleck, (-550, -100), Elijah Wood, (300, 300), Daniel Craig, (-300, 300), idk, [-8. 53.], 0, 1.1745088000316173
sub-05, trial40, 06, Elijah Wood, ID06_IM04.bmp, (-300, 300), Daniel Radcliffe, (0, -400), Ben Affleck, (550, -100), Orlando Bloom, (300, 300), Leonardo DiCaprio, (-550, -100), Elijah Wood, [-218.  285.], 1, 1.452804199885577
sub-05, trial49, 11, Leonardo DiCaprio, ID11_IM02.bmp, (300, 300), George Clooney, (550, -100), Ben Stiller, (-550, -100), Matt Damon, (-300, 300), Hugh Jackman, (0, -400), Leonardo DiCaprio, [181. 301.], 1, 0.8576426000799984
sub-05, trial15, 06, Elijah Wood, ID06_IM03.bmp, (300, 300), Ryan Reynolds, (-550, -100), Patrick Dempsey, (0, -400), Keanu Reeves, (-300, 300), Orlando Bloom, (550, -100), Elijah Wood, [189. 312.], 1, 0.7565667000599205
sub-05, trial45, 09, Justin Timberlake, ID09_IM02.bmp, (-550, -100), Brad Pitt, (-300, 300), Keanu Reeves, (300, 300), Hugh Jackman, (0, -400), Daniel Radcliffe, (550, -100), Justin Timberlake, [-398.  -74.], 1, 1.29998610005714
sub-05, trial37, 01, Ben Affleck, ID01_IM02.bmp, (-550, -100), Ryan Reynolds, (-300, 300), Keanu Reeves, (300, 300), Orlando Bloom, (550, -100), Ben Stiller, (0, -400), Ben Affleck, [-419.  -88.], 1, 2.405258399900049
sub-05, trial19, 16, Robert Pattinson, ID16_IM02.bmp, (300, 300), George Clooney, (550, -100), Orlando Bloom, (-550, -100), Ryan Gosling, (-300, 300), Ben Affleck, (0, -400), Robert Pattinson, [218. 309.], 1, 1.3708299999125302
sub-05, trial42, 12, Matt Damon, ID12_IM04.bmp, (550, -100), Ben Affleck, (300, 300), Ryan Reynolds, (0, -400), Elijah Wood, (-300, 300), Leonardo DiCaprio, (-550, -100), Matt Damon, [476. -85.], 1, 2.4903214001096785
sub-05, trial71, 11, Leonardo DiCaprio, ID11_IM04.bmp, (550, -100), Daniel Radcliffe, (-300, 300), Brad Pitt, (-550, -100), Patrick Dempsey, (300, 300), Robert Downey Jr, (0, -400), Leonardo DiCaprio, [460. -65.], 1, 1.3880385998636484
sub-05, trial30, 07, George Clooney, ID07_IM03.bmp, (550, -100), Ben Affleck, (-300, 300), Justin Timberlake, (300, 300), Daniel Radcliffe, (-550, -100), Keanu Reeves, (0, -400), George Clooney, [505. -67.], 1, 2.226682199863717
sub-05, trial44, 03, Brad Pitt, ID03_IM03.bmp, (-300, 300), Patrick Dempsey, (0, -400), Ben Affleck, (300, 300), Keanu Reeves, (-550, -100), Matt Damon, (550, -100), Brad Pitt, [-260.  273.], 1, 1.695987100014463
sub-05, trial41, 01, Ben Affleck, ID01_IM04.bmp, (550, -100), Leonardo DiCaprio, (300, 300), Robert Downey Jr, (0, -400), Robert Pattinson, (-300, 300), Matt Damon, (-550, -100), Ben Affleck, [ 408. -118.], 1, 3.9383549001067877
sub-05, trial21, 16, Robert Pattinson, ID16_IM04.bmp, (300, 300), Matt Damon, (550, -100), Robert Downey Jr, (-550, -100), Ben Stiller, (0, -400), Daniel Radcliffe, (-300, 300), Robert Pattinson, [204. 278.], 1, 0.8581823999993503
sub-05, trial28, 05, Daniel Radcliffe, ID05_IM01.bmp, (-550, -100), Brad Pitt, (300, 300), Orlando Bloom, (0, -400), Daniel Craig, (-300, 300), Elijah Wood, (550, -100), Daniel Radcliffe, [-407.  -73.], 1, 0.7655710000544786
sub-05, trial60, 04, Daniel Craig, ID04_IM04.bmp, (0, -400), Robert Pattinson, (300, 300), Patrick Dempsey, (-300, 300), Elijah Wood, (-550, -100), Justin Timberlake, (550, -100), Daniel Craig, [ -21. -359.], 1, 1.420513499993831
