subject,trial,celeb_id,celeb_name,celeb_image,celeb_position,rand0_name,rand0_pos,rand1_name,rand1_pos,rand2_name,rand2_pos,rand3_name,rand3_pos,answer_celeb,answer_position,correct,rt
sub-10, trial62, 02, Ben Stiller, ID02_IM01.bmp, (0, -400), Robert Downey Jr, (-550, -100), Robert Pattinson, (550, -100), Ryan Reynolds, (-300, 300), Leonardo DiCaprio, (300, 300), Ben Stiller, [  37. -399.], 1, 4.452763599983882
sub-10, trial38, 13, Orlando Bloom, ID13_IM01.bmp, (0, -400), Ben Stiller, (550, -100), Ryan Gosling, (-550, -100), Keanu Reeves, (300, 300), Matt Damon, (-300, 300), Orlando Bloom, [  49. -390.], 1, 2.36862939997809
sub-10, trial39, 12, Matt Damon, ID12_IM02.bmp, (300, 300), Daniel Radcliffe, (550, -100), Ben Stiller, (0, -400), Ben Affleck, (-300, 300), Ryan Reynolds, (-550, -100), Matt Damon, [237. 300.], 1, 2.2968732999870554
sub-10, trial60, 04, Daniel Craig, ID04_IM02.bmp, (-550, -100), Elijah Wood, (300, 300), Hugh Jackman, (0, -400), Ben Stiller, (550, -100), Orlando Bloom, (-300, 300), Daniel Craig, [-434. -101.], 1, 1.4660977000021376
sub-10, trial3, 01, Ben Affleck, ID01_IM01.bmp, (550, -100), Daniel Radcliffe, (-550, -100), Ben Stiller, (300, 300), Elijah Wood, (0, -400), Robert Downey Jr, (-300, 300), Ben Affleck, [413. -85.], 1, 2.7495273999520577
sub-10, trial71, 09, Justin Timberlake, ID09_IM02.bmp, (-550, -100), Orlando Bloom, (550, -100), Keanu Reeves, (0, -400), Brad Pitt, (300, 300), George Clooney, (-300, 300), Justin Timberlake, [-431.  -95.], 1, 2.284731199964881
sub-10, trial1, 18, Ryan Reynolds, ID18_IM01.bmp, (550, -100), Daniel Craig, (0, -400), Robert Pattinson, (300, 300), Patrick Dempsey, (-550, -100), Robert Downey Jr, (-300, 300), Ryan Reynolds, [437. -91.], 1, 2.7190126999630593
sub-10, trial20, 15, Robert Downey Jr, ID15_IM04.bmp, (550, -100), Ben Affleck, (0, -400), Robert Pattinson, (300, 300), Ben Stiller, (-300, 300), Daniel Radcliffe, (-550, -100), Robert Downey Jr, [395. -96.], 1, 1.9037895999499597
sub-10, trial5, 15, Robert Downey Jr, ID15_IM03.bmp, (550, -100), Hugh Jackman, (0, -400), Robert Pattinson, (-550, -100), Leonardo DiCaprio, (300, 300), Justin Timberlake, (-300, 300), Robert Downey Jr, [496. -84.], 1, 2.5071041000192054
sub-10, trial70, 05, Daniel Radcliffe, ID05_IM02.bmp, (0, -400), Daniel Craig, (550, -100), Keanu Reeves, (-300, 300), Robert Downey Jr, (-550, -100), Orlando Bloom, (300, 300), Daniel Radcliffe, [ 104. -421.], 1, 2.691817099985201
sub-10, trial66, 16, Robert Pattinson, ID16_IM01.bmp, (-550, -100), Ryan Gosling, (-300, 300), Leonardo DiCaprio, (550, -100), Daniel Radcliffe, (0, -400), Orlando Bloom, (300, 300), Robert Pattinson, [-424.  -74.], 1, 1.4459139000391588
sub-10, trial36, 10, Keanu Reeves, ID10_IM01.bmp, (-300, 300), Ben Affleck, (300, 300), Orlando Bloom, (0, -400), Robert Pattinson, (-550, -100), Daniel Craig, (550, -100), Keanu Reeves, [-206.  315.], 1, 4.1379214999615215
sub-10, trial69, 11, Leonardo DiCaprio, ID11_IM03.bmp, (550, -100), Orlando Bloom, (0, -400), Keanu Reeves, (-550, -100), George Clooney, (300, 300), Daniel Radcliffe, (-300, 300), Leonardo DiCaprio, [433. -68.], 1, 1.906872600025963
sub-10, trial35, 03, Brad Pitt, ID03_IM02.bmp, (-550, -100), Hugh Jackman, (550, -100), Robert Downey Jr, (-300, 300), Robert Pattinson, (300, 300), Ben Affleck, (0, -400), Brad Pitt, [-394.  -90.], 1, 1.2685445999959484
sub-10, trial6, 13, Orlando Bloom, ID13_IM04.bmp, (300, 300), Ryan Reynolds, (-300, 300), Hugh Jackman, (0, -400), Leonardo DiCaprio, (550, -100), Ben Stiller, (-550, -100), Orlando Bloom, [236. 304.], 1, 1.5824327999725938
sub-10, trial32, 05, Daniel Radcliffe, ID05_IM01.bmp, (-300, 300), Elijah Wood, (0, -400), Daniel Craig, (300, 300), Ben Affleck, (550, -100), Leonardo DiCaprio, (-550, -100), Daniel Radcliffe, [-179.  308.], 1, 1.4128323000040837
sub-10, trial56, 01, Ben Affleck, ID01_IM02.bmp, (550, -100), Brad Pitt, (0, -400), Daniel Craig, (-550, -100), Daniel Radcliffe, (-300, 300), Patrick Dempsey, (300, 300), Ben Affleck, [392. -85.], 1, 1.211448099988047
sub-10, trial61, 05, Daniel Radcliffe, ID05_IM03.bmp, (-300, 300), Ryan Reynolds, (550, -100), Ben Affleck, (300, 300), Leonardo DiCaprio, (0, -400), Robert Downey Jr, (-550, -100), Daniel Radcliffe, [-199.  309.], 1, 1.016562100034207
sub-10, trial55, 14, Patrick Dempsey, ID14_IM03.bmp, (-550, -100), Justin Timberlake, (300, 300), Daniel Radcliffe, (0, -400), Robert Downey Jr, (550, -100), Ben Stiller, (-300, 300), Patrick Dempsey, [-410.  -77.], 1, 1.1653067999868654
sub-10, trial17, 18, Ryan Reynolds, ID18_IM04.bmp, (550, -100), Ryan Gosling, (300, 300), Daniel Craig, (-550, -100), Hugh Jackman, (0, -400), Ben Affleck, (-300, 300), Ryan Reynolds, [422. -93.], 1, 1.5476788000087254
sub-10, trial59, 14, Patrick Dempsey, ID14_IM04.bmp, (550, -100), Justin Timberlake, (-550, -100), Robert Downey Jr, (0, -400), Ben Affleck, (300, 300), Ryan Gosling, (-300, 300), Patrick Dempsey, [449. -95.], 1, 1.779804099991452
sub-10, trial28, 10, Keanu Reeves, ID10_IM04.bmp, (0, -400), Daniel Craig, (-550, -100), Ben Stiller, (-300, 300), George Clooney, (550, -100), Robert Downey Jr, (300, 300), Keanu Reeves, [  72. -404.], 1, 1.787244000006467
sub-10, trial52, 14, Patrick Dempsey, ID14_IM02.bmp, (0, -400), Leonardo DiCaprio, (300, 300), Daniel Craig, (550, -100), Keanu Reeves, (-550, -100), Hugh Jackman, (-300, 300), Patrick Dempsey, [  35. -379.], 1, 2.249215300020296
sub-10, trial64, 07, George Clooney, ID07_IM03.bmp, (-300, 300), Ben Affleck, (0, -400), Keanu Reeves, (550, -100), Leonardo DiCaprio, (300, 300), Daniel Craig, (-550, -100), George Clooney, [-239.  270.], 1, 1.3418369999853894
sub-10, trial72, 01, Ben Affleck, ID01_IM04.bmp, (550, -100), Justin Timberlake, (300, 300), Matt Damon, (-550, -100), George Clooney, (0, -400), Keanu Reeves, (-300, 300), Ben Affleck, [460. -94.], 1, 2.4213381999870762
sub-10, trial34, 07, George Clooney, ID07_IM04.bmp, (550, -100), Daniel Radcliffe, (-550, -100), Hugh Jackman, (300, 300), Keanu Reeves, (0, -400), Orlando Bloom, (-300, 300), George Clooney, [ 387. -112.], 1, 1.6023732000030577
sub-10, trial41, 03, Brad Pitt, ID03_IM01.bmp, (-300, 300), Patrick Dempsey, (300, 300), George Clooney, (0, -400), Ryan Gosling, (550, -100), Daniel Radcliffe, (-550, -100), Brad Pitt, [-275.  279.], 1, 1.6327692000195384
sub-10, trial18, 15, Robert Downey Jr, ID15_IM02.bmp, (0, -400), Justin Timberlake, (300, 300), Daniel Radcliffe, (550, -100), George Clooney, (-550, -100), Orlando Bloom, (-300, 300), Robert Downey Jr, [-106. -399.], 1, 1.2043117000139318
sub-10, trial23, 13, Orlando Bloom, ID13_IM03.bmp, (-300, 300), Ryan Reynolds, (-550, -100), Ryan Gosling, (300, 300), Brad Pitt, (550, -100), Ben Stiller, (0, -400), Orlando Bloom, [-279.  262.], 1, 1.275450000015553
sub-10, trial29, 08, Hugh Jackman, ID08_IM03.bmp, (0, -400), Robert Downey Jr, (300, 300), Ryan Gosling, (550, -100), Ben Affleck, (-550, -100), Ben Stiller, (-300, 300), Hugh Jackman, [  40. -403.], 1, 2.1894834999693558
sub-10, trial49, 06, Elijah Wood, ID06_IM01.bmp, (0, -400), Justin Timberlake, (-550, -100), Hugh Jackman, (-300, 300), Daniel Radcliffe, (300, 300), Ryan Reynolds, (550, -100), Elijah Wood, [ 113. -385.], 1, 2.0273796999827027
sub-10, trial57, 08, Hugh Jackman, ID08_IM01.bmp, (-300, 300), Ben Affleck, (550, -100), Robert Pattinson, (0, -400), Daniel Craig, (-550, -100), Robert Downey Jr, (300, 300), Hugh Jackman, [-233.  294.], 1, 3.6495615000021644
sub-10, trial11, 04, Daniel Craig, ID04_IM03.bmp, (550, -100), George Clooney, (300, 300), Daniel Radcliffe, (-300, 300), Matt Damon, (0, -400), Elijah Wood, (-550, -100), Daniel Craig, [ 490. -111.], 1, 1.0526721999631263
sub-10, trial65, 13, Orlando Bloom, ID13_IM02.bmp, (-300, 300), Justin Timberlake, (-550, -100), Robert Downey Jr, (550, -100), George Clooney, (0, -400), Hugh Jackman, (300, 300), Orlando Bloom, [-208.  297.], 1, 1.4405354000045918
sub-10, trial40, 16, Robert Pattinson, ID16_IM03.bmp, (-550, -100), Robert Downey Jr, (0, -400), Ryan Gosling, (550, -100), Keanu Reeves, (300, 300), Brad Pitt, (-300, 300), Robert Pattinson, [-439.  -66.], 1, 1.140967899991665
sub-10, trial16, 17, Ryan Gosling, ID17_IM01.bmp, (550, -100), Ben Affleck, (300, 300), Matt Damon, (0, -400), Robert Downey Jr, (-550, -100), Daniel Craig, (-300, 300), Ryan Gosling, [ 419. -130.], 1, 1.3179259999888018
sub-10, trial26, 04, Daniel Craig, ID04_IM04.bmp, (-300, 300), Ben Stiller, (550, -100), Patrick Dempsey, (-550, -100), Brad Pitt, (0, -400), Justin Timberlake, (300, 300), Daniel Craig, [-299.  270.], 1, 1.1343146999715827
sub-10, trial13, 12, Matt Damon, ID12_IM01.bmp, (550, -100), Elijah Wood, (-550, -100), Leonardo DiCaprio, (0, -400), Ryan Gosling, (-300, 300), Justin Timberlake, (300, 300), Matt Damon, [ 415. -108.], 1, 1.2467991999583319
sub-10, trial27, 10, Keanu Reeves, ID10_IM02.bmp, (-550, -100), Leonardo DiCaprio, (-300, 300), Ryan Reynolds, (300, 300), Ben Stiller, (0, -400), Matt Damon, (550, -100), Keanu Reeves, [-437. -115.], 1, 1.4440532000153325
sub-10, trial31, 02, Ben Stiller, ID02_IM02.bmp, (550, -100), Matt Damon, (-300, 300), Ryan Reynolds, (0, -400), Leonardo DiCaprio, (300, 300), Ryan Gosling, (-550, -100), Ben Stiller, [481. -78.], 1, 1.4633473999565467
sub-10, trial8, 08, Hugh Jackman, ID08_IM04.bmp, (300, 300), Patrick Dempsey, (-550, -100), Daniel Radcliffe, (0, -400), Ben Stiller, (-300, 300), Matt Damon, (550, -100), Hugh Jackman, [210. 282.], 1, 2.6907582000130787
sub-10, trial68, 09, Justin Timberlake, ID09_IM01.bmp, (300, 300), Ryan Gosling, (550, -100), Elijah Wood, (0, -400), Keanu Reeves, (-550, -100), Ben Stiller, (-300, 300), Justin Timberlake, [176. 261.], 1, 1.7256002000067383
sub-10, trial67, 11, Leonardo DiCaprio, ID11_IM04.bmp, (-300, 300), Robert Pattinson, (-550, -100), Orlando Bloom, (550, -100), Robert Downey Jr, (0, -400), Daniel Radcliffe, (300, 300), Leonardo DiCaprio, [-241.  303.], 1, 1.0456572999828495
sub-10, trial48, 04, Daniel Craig, ID04_IM01.bmp, (0, -400), Hugh Jackman, (550, -100), Ryan Gosling, (-300, 300), George Clooney, (-550, -100), Ben Stiller, (300, 300), Daniel Craig, [  50. -413.], 1, 1.274727799987886
sub-10, trial10, 09, Justin Timberlake, ID09_IM04.bmp, (-300, 300), Elijah Wood, (0, -400), Robert Downey Jr, (550, -100), Ryan Gosling, (-550, -100), Ben Affleck, (300, 300), Justin Timberlake, [-140.  299.], 1, 0.956802400003653
sub-10, trial7, 18, Ryan Reynolds, ID18_IM02.bmp, (300, 300), Patrick Dempsey, (-550, -100), Daniel Craig, (0, -400), George Clooney, (-300, 300), Ben Stiller, (550, -100), Ryan Reynolds, [211. 267.], 1, 1.6840435999911278
sub-10, trial19, 06, Elijah Wood, ID06_IM03.bmp, (-300, 300), Keanu Reeves, (0, -400), Daniel Craig, (-550, -100), Patrick Dempsey, (550, -100), Matt Damon, (300, 300), Elijah Wood, [-294.  306.], 1, 1.0708482000045478
sub-10, trial45, 03, Brad Pitt, ID03_IM03.bmp, (-300, 300), Orlando Bloom, (300, 300), Justin Timberlake, (550, -100), Ryan Reynolds, (-550, -100), Ben Affleck, (0, -400), Brad Pitt, [-251.  281.], 1, 1.0250114999944344
sub-10, trial21, 15, Robert Downey Jr, ID15_IM01.bmp, (-550, -100), Ryan Reynolds, (550, -100), Justin Timberlake, (300, 300), Daniel Radcliffe, (0, -400), Keanu Reeves, (-300, 300), Robert Downey Jr, [-432.  -69.], 1, 0.9580008000484668
sub-10, trial33, 16, Robert Pattinson, ID16_IM04.bmp, (550, -100), Robert Downey Jr, (-300, 300), Leonardo DiCaprio, (-550, -100), Elijah Wood, (0, -400), Hugh Jackman, (300, 300), Robert Pattinson, [568. -67.], 1, 1.694935199979227
sub-10, trial22, 06, Elijah Wood, ID06_IM04.bmp, (300, 300), Robert Pattinson, (-550, -100), Ben Affleck, (550, -100), Matt Damon, (0, -400), Ryan Reynolds, (-300, 300), Elijah Wood, [181. 292.], 1, 1.8881292999722064
sub-10, trial63, 12, Matt Damon, ID12_IM04.bmp, (300, 300), Justin Timberlake, (-550, -100), Leonardo DiCaprio, (0, -400), George Clooney, (-300, 300), Ben Stiller, (550, -100), Matt Damon, [233. 302.], 1, 1.9062879000557587
sub-10, trial42, 11, Leonardo DiCaprio, ID11_IM02.bmp, (-550, -100), Daniel Radcliffe, (-300, 300), Justin Timberlake, (550, -100), George Clooney, (300, 300), Hugh Jackman, (0, -400), Leonardo DiCaprio, [-412. -115.], 1, 1.340176000026986
sub-10, trial44, 17, Ryan Gosling, ID17_IM02.bmp, (300, 300), Patrick Dempsey, (-550, -100), Daniel Craig, (550, -100), Ben Affleck, (-300, 300), Robert Downey Jr, (0, -400), Ryan Gosling, [254. 286.], 1, 1.5882444000453688
sub-10, trial53, 07, George Clooney, ID07_IM01.bmp, (300, 300), Robert Pattinson, (550, -100), Ryan Reynolds, (-550, -100), Keanu Reeves, (-300, 300), Ben Stiller, (0, -400), George Clooney, [292. 281.], 1, 2.098474800004624
sub-10, trial4, 14, Patrick Dempsey, ID14_IM01.bmp, (-550, -100), Ben Stiller, (0, -400), Hugh Jackman, (550, -100), Robert Downey Jr, (300, 300), Keanu Reeves, (-300, 300), Patrick Dempsey, [-406.  -86.], 1, 1.9077715000021271
sub-10, trial14, 02, Ben Stiller, ID02_IM04.bmp, (-550, -100), Matt Damon, (300, 300), Robert Pattinson, (-300, 300), Hugh Jackman, (0, -400), Brad Pitt, (550, -100), Ben Stiller, [-416.  -90.], 1, 2.18936840002425
sub-10, trial25, 17, Ryan Gosling, ID17_IM03.bmp, (550, -100), Ben Affleck, (-550, -100), Brad Pitt, (-300, 300), Daniel Craig, (0, -400), Leonardo DiCaprio, (300, 300), Ryan Gosling, [ 432. -115.], 1, 1.2276471000513993
sub-10, trial2, 05, Daniel Radcliffe, ID05_IM04.bmp, (0, -400), Leonardo DiCaprio, (300, 300), Elijah Wood, (-300, 300), Matt Damon, (-550, -100), Ryan Gosling, (550, -100), Daniel Radcliffe, [  83. -381.], 1, 1.4802225999883376
sub-10, trial37, 09, Justin Timberlake, ID09_IM03.bmp, (-300, 300), Elijah Wood, (0, -400), Leonardo DiCaprio, (300, 300), Hugh Jackman, (550, -100), Patrick Dempsey, (-550, -100), Justin Timberlake, [-181.  291.], 1, 1.1714493000181392
sub-10, trial12, 03, Brad Pitt, ID03_IM04.bmp, (300, 300), George Clooney, (-300, 300), Ben Stiller, (0, -400), Ryan Reynolds, (550, -100), Ben Affleck, (-550, -100), Brad Pitt, [268. 281.], 1, 1.1541760999825783
sub-10, trial24, 18, Ryan Reynolds, ID18_IM03.bmp, (-300, 300), Patrick Dempsey, (-550, -100), Ben Affleck, (300, 300), Hugh Jackman, (0, -400), Daniel Craig, (550, -100), Ryan Reynolds, [-210.  299.], 1, 1.8743736999458633
sub-10, trial15, 17, Ryan Gosling, ID17_IM04.bmp, (-550, -100), Brad Pitt, (0, -400), Patrick Dempsey, (-300, 300), Justin Timberlake, (550, -100), Matt Damon, (300, 300), Ryan Gosling, [-417. -123.], 1, 1.6530107000144199
sub-10, trial51, 08, Hugh Jackman, ID08_IM02.bmp, (-300, 300), Daniel Radcliffe, (550, -100), Matt Damon, (0, -400), Robert Pattinson, (300, 300), Brad Pitt, (-550, -100), Hugh Jackman, [-211.  255.], 1, 1.4807524000061676
sub-10, trial46, 16, Robert Pattinson, ID16_IM02.bmp, (300, 300), Brad Pitt, (-550, -100), George Clooney, (-300, 300), Orlando Bloom, (0, -400), Patrick Dempsey, (550, -100), Robert Pattinson, [239. 276.], 1, 1.0994095000205562
sub-10, trial43, 11, Leonardo DiCaprio, ID11_IM01.bmp, (-300, 300), Ben Stiller, (550, -100), George Clooney, (-550, -100), Keanu Reeves, (300, 300), Ryan Gosling, (0, -400), Leonardo DiCaprio, [-184.  296.], 1, 1.812879300036002
sub-10, trial9, 02, Ben Stiller, ID02_IM03.bmp, (0, -400), Leonardo DiCaprio, (550, -100), Hugh Jackman, (-300, 300), Daniel Craig, (300, 300), Patrick Dempsey, (-550, -100), Ben Stiller, [   5. -399.], 1, 1.4587472000275739
sub-10, trial54, 01, Ben Affleck, ID01_IM03.bmp, (0, -400), Daniel Radcliffe, (550, -100), Ben Stiller, (-300, 300), Keanu Reeves, (300, 300), Justin Timberlake, (-550, -100), Ben Stiller, [-158.  276.], 0, 1.1660448999609798
sub-10, trial30, 06, Elijah Wood, ID06_IM02.bmp, (550, -100), Matt Damon, (-550, -100), George Clooney, (0, -400), Ben Stiller, (-300, 300), Keanu Reeves, (300, 300), familiar face, [ -21. -128.], 1, 4.6542761999880895
sub-10, trial50, 10, Keanu Reeves, ID10_IM03.bmp, (0, -400), Ryan Reynolds, (-550, -100), Orlando Bloom, (550, -100), Matt Damon, (300, 300), Ben Affleck, (-300, 300), Keanu Reeves, [  64. -389.], 1, 1.2969626999692991
sub-10, trial47, 12, Matt Damon, ID12_IM03.bmp, (0, -400), Leonardo DiCaprio, (-300, 300), George Clooney, (-550, -100), Hugh Jackman, (300, 300), Ryan Reynolds, (550, -100), Matt Damon, [  35. -416.], 1, 1.6515116000082344
sub-10, trial58, 07, George Clooney, ID07_IM02.bmp, (-550, -100), Keanu Reeves, (550, -100), Matt Damon, (-300, 300), Robert Pattinson, (300, 300), Patrick Dempsey, (0, -400), George Clooney, [-396.  -84.], 1, 1.8397192999836989
