subject,trial,celeb_id,celeb_name,celeb_image,celeb_position,rand0_name,rand0_pos,rand1_name,rand1_pos,rand2_name,rand2_pos,rand3_name,rand3_pos,answer_celeb,answer_position,correct,rt
sub-20, trial24, 05, Daniel Radcliffe, ID05_IM01.bmp, (-300, 300), Elijah Wood, (300, 300), Ben Stiller, (-550, -100), Robert Pattinson, (0, -400), Justin Timberlake, (550, -100), Daniel Radcliffe, [-237.  273.], 1, 6.518146899994463
sub-20, trial42, 09, Justin Timberlake, ID09_IM02.bmp, (550, -100), Daniel Craig, (0, -400), Ben Affleck, (-550, -100), Ryan Reynolds, (300, 300), George Clooney, (-300, 300), familiar face, [ -6. -97.], 1, 4.295855900039896
sub-20, trial6, 13, Orlando Bloom, ID13_IM04.bmp, (-550, -100), Keanu Reeves, (300, 300), Robert Downey Jr, (550, -100), Leonardo DiCaprio, (-300, 300), Ryan Reynolds, (0, -400), familiar face, [   6. -137.], 1, 9.2893920999486
sub-20, trial53, 17, Ryan Gosling, ID17_IM03.bmp, (-550, -100), Ben Stiller, (300, 300), Elijah Wood, (-300, 300), Justin Timberlake, (0, -400), Leonardo DiCaprio, (550, -100), Ryan Gosling, [-440.  -99.], 1, 2.9645413999678567
sub-20, trial49, 06, Elijah Wood, ID06_IM04.bmp, (-550, -100), Ryan Gosling, (-300, 300), Matt Damon, (300, 300), Ben Affleck, (550, -100), Patrick Dempsey, (0, -400), familiar face, [ -32. -130.], 1, 3.5967700999462977
sub-20, trial66, 12, Matt Damon, ID12_IM03.bmp, (0, -400), Ben Stiller, (-300, 300), Ryan Reynolds, (550, -100), Robert Pattinson, (-550, -100), George Clooney, (300, 300), familiar face, [ -26. -132.], 1, 4.065944100031629
sub-20, trial31, 12, Matt Damon, ID12_IM02.bmp, (550, -100), Daniel Radcliffe, (300, 300), Hugh Jackman, (-550, -100), Robert Pattinson, (-300, 300), Ben Stiller, (0, -400), familiar face, [ -43. -116.], 1, 10.781094199977815
sub-20, trial61, 10, Keanu Reeves, ID10_IM01.bmp, (0, -400), Daniel Radcliffe, (-300, 300), Ryan Reynolds, (550, -100), Daniel Craig, (-550, -100), Hugh Jackman, (300, 300), familiar face, [ -44. -116.], 1, 3.603511800058186
sub-20, trial43, 12, Matt Damon, ID12_IM04.bmp, (-550, -100), Orlando Bloom, (-300, 300), Daniel Craig, (550, -100), Ben Stiller, (0, -400), Robert Pattinson, (300, 300), familiar face, [ -7. -89.], 1, 8.273407200002111
sub-20, trial57, 18, Ryan Reynolds, ID18_IM04.bmp, (-550, -100), Matt Damon, (300, 300), Ben Affleck, (550, -100), Patrick Dempsey, (0, -400), Keanu Reeves, (-300, 300), familiar face, [   6. -105.], 1, 7.793382399948314
sub-20, trial9, 13, Orlando Bloom, ID13_IM03.bmp, (-300, 300), Daniel Radcliffe, (300, 300), Ben Stiller, (550, -100), Leonardo DiCaprio, (0, -400), Justin Timberlake, (-550, -100), familiar face, [  19. -120.], 1, 3.226906199939549
sub-20, trial36, 07, George Clooney, ID07_IM03.bmp, (550, -100), Hugh Jackman, (-550, -100), Ryan Gosling, (-300, 300), Justin Timberlake, (0, -400), Brad Pitt, (300, 300), George Clooney, [ 442. -101.], 1, 1.936109000002034
sub-20, trial13, 08, Hugh Jackman, ID08_IM01.bmp, (550, -100), Daniel Craig, (-300, 300), Ryan Reynolds, (0, -400), Robert Pattinson, (300, 300), Leonardo DiCaprio, (-550, -100), familiar face, [ 131. -121.], 1, 6.080743899918161
sub-20, trial7, 11, Leonardo DiCaprio, ID11_IM01.bmp, (300, 300), Daniel Radcliffe, (0, -400), Robert Pattinson, (-550, -100), Keanu Reeves, (550, -100), Ryan Reynolds, (-300, 300), Leonardo DiCaprio, [257. 280.], 1, 3.2826292000245303
sub-20, trial17, 01, Ben Affleck, ID01_IM02.bmp, (-300, 300), George Clooney, (0, -400), Matt Damon, (550, -100), Ben Stiller, (300, 300), Daniel Craig, (-550, -100), familiar face, [104. -92.], 1, 2.3418459000531584
sub-20, trial4, 15, Robert Downey Jr, ID15_IM03.bmp, (300, 300), Daniel Radcliffe, (550, -100), Patrick Dempsey, (-550, -100), Ryan Reynolds, (0, -400), Ben Stiller, (-300, 300), Robert Downey Jr, [279. 292.], 1, 4.3502845000475645
sub-20, trial64, 04, Daniel Craig, ID04_IM02.bmp, (-550, -100), Daniel Radcliffe, (0, -400), Ben Affleck, (-300, 300), Elijah Wood, (550, -100), Ryan Gosling, (300, 300), Daniel Craig, [-403.  -94.], 1, 7.5407443000003695
sub-20, trial69, 15, Robert Downey Jr, ID15_IM04.bmp, (-550, -100), Elijah Wood, (550, -100), Keanu Reeves, (0, -400), Robert Pattinson, (300, 300), Ryan Gosling, (-300, 300), familiar face, [ 96. -93.], 1, 2.2377652000868693
sub-20, trial38, 03, Brad Pitt, ID03_IM04.bmp, (550, -100), Elijah Wood, (0, -400), Ryan Reynolds, (300, 300), Ryan Gosling, (-300, 300), Justin Timberlake, (-550, -100), familiar face, [ 95. -98.], 1, 2.137341200024821
sub-20, trial14, 03, Brad Pitt, ID03_IM03.bmp, (300, 300), Ryan Gosling, (0, -400), Keanu Reeves, (-300, 300), Justin Timberlake, (550, -100), Orlando Bloom, (-550, -100), Brad Pitt, [253. 286.], 1, 2.7217689999379218
sub-20, trial39, 13, Orlando Bloom, ID13_IM01.bmp, (0, -400), Elijah Wood, (550, -100), Patrick Dempsey, (-550, -100), George Clooney, (300, 300), Brad Pitt, (-300, 300), familiar face, [ 123. -105.], 1, 2.2352990999352187
sub-20, trial32, 11, Leonardo DiCaprio, ID11_IM02.bmp, (550, -100), Brad Pitt, (300, 300), George Clooney, (-550, -100), Ryan Gosling, (0, -400), Elijah Wood, (-300, 300), Leonardo DiCaprio, [443. -91.], 1, 4.676373700029217
sub-20, trial71, 03, Brad Pitt, ID03_IM02.bmp, (-550, -100), Hugh Jackman, (0, -400), Daniel Craig, (-300, 300), Keanu Reeves, (300, 300), Daniel Radcliffe, (550, -100), Brad Pitt, [-458.  -91.], 1, 5.283280299976468
sub-20, trial40, 10, Keanu Reeves, ID10_IM02.bmp, (0, -400), Daniel Radcliffe, (-550, -100), Matt Damon, (-300, 300), Ryan Gosling, (550, -100), Justin Timberlake, (300, 300), familiar face, [  42. -142.], 1, 6.108469400089234
sub-20, trial5, 04, Daniel Craig, ID04_IM03.bmp, (300, 300), Brad Pitt, (-300, 300), Robert Pattinson, (0, -400), George Clooney, (550, -100), Elijah Wood, (-550, -100), Daniel Craig, [248. 290.], 1, 2.991196900024079
sub-20, trial60, 16, Robert Pattinson, ID16_IM04.bmp, (550, -100), Leonardo DiCaprio, (0, -400), Daniel Radcliffe, (-550, -100), Ben Stiller, (-300, 300), Justin Timberlake, (300, 300), Robert Pattinson, [434. -90.], 1, 1.8131008999189362
sub-20, trial18, 16, Robert Pattinson, ID16_IM03.bmp, (-550, -100), Robert Downey Jr, (-300, 300), George Clooney, (550, -100), Justin Timberlake, (0, -400), Ben Affleck, (300, 300), Robert Pattinson, [-402.  -91.], 1, 2.6578852999955416
sub-20, trial33, 02, Ben Stiller, ID02_IM02.bmp, (0, -400), Leonardo DiCaprio, (300, 300), Ryan Gosling, (-300, 300), Daniel Radcliffe, (-550, -100), Orlando Bloom, (550, -100), familiar face, [  91. -128.], 1, 1.8367766999872401
sub-20, trial27, 05, Daniel Radcliffe, ID05_IM04.bmp, (-300, 300), Elijah Wood, (-550, -100), Ryan Reynolds, (0, -400), Brad Pitt, (550, -100), Orlando Bloom, (300, 300), Daniel Radcliffe, [-270.  301.], 1, 5.234141899971291
sub-20, trial34, 17, Ryan Gosling, ID17_IM02.bmp, (550, -100), Robert Downey Jr, (-300, 300), Daniel Radcliffe, (0, -400), Matt Damon, (-550, -100), Ben Stiller, (300, 300), Ryan Gosling, [483. -79.], 1, 2.1754748000530526
sub-20, trial52, 05, Daniel Radcliffe, ID05_IM03.bmp, (-550, -100), Elijah Wood, (300, 300), Leonardo DiCaprio, (550, -100), Keanu Reeves, (0, -400), Ben Stiller, (-300, 300), Daniel Radcliffe, [-483.  -97.], 1, 4.901515499921516
sub-20, trial44, 14, Patrick Dempsey, ID14_IM02.bmp, (0, -400), Robert Pattinson, (550, -100), Hugh Jackman, (300, 300), Brad Pitt, (-550, -100), Leonardo DiCaprio, (-300, 300), familiar face, [ 116. -124.], 1, 4.255528000066988
sub-20, trial8, 09, Justin Timberlake, ID09_IM01.bmp, (-550, -100), Ryan Reynolds, (300, 300), Robert Downey Jr, (-300, 300), Hugh Jackman, (550, -100), Ben Stiller, (0, -400), familiar face, [  98. -106.], 1, 1.3470750000560656
sub-20, trial28, 17, Ryan Gosling, ID17_IM04.bmp, (550, -100), Robert Pattinson, (-550, -100), Daniel Radcliffe, (0, -400), Robert Downey Jr, (-300, 300), Matt Damon, (300, 300), Ryan Gosling, [418. -96.], 1, 2.643345499993302
sub-20, trial16, 07, George Clooney, ID07_IM01.bmp, (300, 300), Patrick Dempsey, (-300, 300), Robert Downey Jr, (-550, -100), Hugh Jackman, (0, -400), Robert Pattinson, (550, -100), George Clooney, [301. 308.], 1, 1.6394153999863192
sub-20, trial11, 10, Keanu Reeves, ID10_IM03.bmp, (0, -400), Ben Affleck, (300, 300), Ryan Reynolds, (-550, -100), Daniel Radcliffe, (550, -100), Elijah Wood, (-300, 300), familiar face, [ 102. -121.], 1, 2.2271830999525264
sub-20, trial67, 01, Ben Affleck, ID01_IM03.bmp, (550, -100), Daniel Radcliffe, (0, -400), Patrick Dempsey, (-300, 300), Leonardo DiCaprio, (300, 300), Orlando Bloom, (-550, -100), familiar face, [ 127. -102.], 1, 1.8801108000334352
sub-20, trial21, 18, Ryan Reynolds, ID18_IM02.bmp, (-300, 300), George Clooney, (300, 300), Orlando Bloom, (550, -100), Patrick Dempsey, (-550, -100), Justin Timberlake, (0, -400), familiar face, [ 138. -111.], 1, 5.562798700062558
sub-20, trial65, 14, Patrick Dempsey, ID14_IM01.bmp, (-550, -100), Daniel Craig, (550, -100), Ben Stiller, (0, -400), Ben Affleck, (-300, 300), Robert Downey Jr, (300, 300), familiar face, [ 130. -114.], 1, 2.2734501999802887
sub-20, trial35, 08, Hugh Jackman, ID08_IM03.bmp, (-550, -100), Ben Stiller, (550, -100), Patrick Dempsey, (0, -400), Robert Pattinson, (-300, 300), Justin Timberlake, (300, 300), familiar face, [ 154. -100.], 1, 4.068961199955083
sub-20, trial70, 14, Patrick Dempsey, ID14_IM03.bmp, (-300, 300), Ryan Gosling, (300, 300), Orlando Bloom, (0, -400), Daniel Craig, (550, -100), Leonardo DiCaprio, (-550, -100), familiar face, [ 123. -102.], 1, 2.4084892000537366
sub-20, trial46, 02, Ben Stiller, ID02_IM01.bmp, (-300, 300), George Clooney, (550, -100), Matt Damon, (0, -400), Keanu Reeves, (-550, -100), Elijah Wood, (300, 300), familiar face, [ 145. -109.], 1, 1.9092456999933347
sub-20, trial62, 07, George Clooney, ID07_IM04.bmp, (550, -100), Elijah Wood, (0, -400), Ben Stiller, (-550, -100), Brad Pitt, (300, 300), Patrick Dempsey, (-300, 300), George Clooney, [457. -99.], 1, 1.3422453999519348
sub-20, trial20, 02, Ben Stiller, ID02_IM04.bmp, (550, -100), Ryan Gosling, (0, -400), Elijah Wood, (-550, -100), Hugh Jackman, (-300, 300), Orlando Bloom, (300, 300), familiar face, [ 155. -110.], 1, 2.2301238999934867
sub-20, trial1, 11, Leonardo DiCaprio, ID11_IM04.bmp, (0, -400), Matt Damon, (300, 300), Ben Stiller, (-550, -100), Ryan Reynolds, (-300, 300), Daniel Radcliffe, (550, -100), Leonardo DiCaprio, [  81. -395.], 1, 2.731075100018643
sub-20, trial58, 08, Hugh Jackman, ID08_IM04.bmp, (550, -100), Ben Stiller, (-550, -100), Patrick Dempsey, (0, -400), Leonardo DiCaprio, (-300, 300), Justin Timberlake, (300, 300), familiar face, [ 102. -120.], 1, 1.3248981999931857
sub-20, trial47, 09, Justin Timberlake, ID09_IM03.bmp, (-550, -100), Ben Stiller, (-300, 300), Daniel Craig, (300, 300), Hugh Jackman, (550, -100), Ryan Reynolds, (0, -400), familiar face, [ 112. -115.], 1, 0.7022153999423608
sub-20, trial19, 04, Daniel Craig, ID04_IM04.bmp, (-550, -100), Robert Pattinson, (550, -100), Robert Downey Jr, (300, 300), Daniel Radcliffe, (0, -400), Brad Pitt, (-300, 300), Daniel Craig, [-415. -106.], 1, 4.0152018999215215
sub-20, trial3, 15, Robert Downey Jr, ID15_IM01.bmp, (-550, -100), George Clooney, (300, 300), Elijah Wood, (0, -400), Keanu Reeves, (-300, 300), Ben Stiller, (550, -100), Robert Downey Jr, [-393. -121.], 1, 2.7080843000439927
sub-20, trial25, 13, Orlando Bloom, ID13_IM02.bmp, (-550, -100), Hugh Jackman, (550, -100), Patrick Dempsey, (0, -400), Robert Pattinson, (-300, 300), Ben Affleck, (300, 300), familiar face, [ 110. -118.], 1, 1.4457907999167219
sub-20, trial15, 12, Matt Damon, ID12_IM01.bmp, (550, -100), Hugh Jackman, (300, 300), Ryan Reynolds, (-550, -100), Robert Pattinson, (0, -400), Justin Timberlake, (-300, 300), familiar face, [ 125. -139.], 1, 3.8271870999597013
sub-20, trial72, 01, Ben Affleck, ID01_IM01.bmp, (550, -100), Robert Pattinson, (-550, -100), Daniel Craig, (-300, 300), Robert Downey Jr, (300, 300), Leonardo DiCaprio, (0, -400), familiar face, [ 129. -137.], 1, 1.3599499999545515
sub-20, trial55, 17, Ryan Gosling, ID17_IM01.bmp, (550, -100), Brad Pitt, (-300, 300), Orlando Bloom, (0, -400), Elijah Wood, (300, 300), George Clooney, (-550, -100), Ryan Gosling, [476. -99.], 1, 1.543854699935764
sub-20, trial26, 09, Justin Timberlake, ID09_IM04.bmp, (-300, 300), Patrick Dempsey, (0, -400), Ben Stiller, (-550, -100), Ben Affleck, (550, -100), Brad Pitt, (300, 300), familiar face, [ 151. -127.], 1, 1.3271451001055539
sub-20, trial45, 15, Robert Downey Jr, ID15_IM02.bmp, (-550, -100), Hugh Jackman, (550, -100), George Clooney, (300, 300), Ben Affleck, (-300, 300), Patrick Dempsey, (0, -400), Robert Downey Jr, [-424. -102.], 1, 1.74314829998184
sub-20, trial10, 06, Elijah Wood, ID06_IM02.bmp, (550, -100), Hugh Jackman, (0, -400), Ryan Gosling, (-550, -100), Ben Affleck, (-300, 300), Ben Stiller, (300, 300), familiar face, [ 101. -125.], 1, 7.823554800008424
sub-20, trial63, 16, Robert Pattinson, ID16_IM02.bmp, (300, 300), Brad Pitt, (-300, 300), Patrick Dempsey, (550, -100), Ryan Gosling, (-550, -100), Keanu Reeves, (0, -400), Robert Pattinson, [276. 284.], 1, 2.900802900083363
sub-20, trial23, 18, Ryan Reynolds, ID18_IM01.bmp, (0, -400), George Clooney, (-550, -100), Matt Damon, (550, -100), Daniel Craig, (-300, 300), Justin Timberlake, (300, 300), familiar face, [ 134. -101.], 1, 1.110964099992998
sub-20, trial12, 02, Ben Stiller, ID02_IM03.bmp, (300, 300), Daniel Radcliffe, (-550, -100), Daniel Craig, (0, -400), Elijah Wood, (550, -100), Justin Timberlake, (-300, 300), familiar face, [ 122. -106.], 1, 1.5271471999585629
sub-20, trial48, 06, Elijah Wood, ID06_IM03.bmp, (550, -100), Leonardo DiCaprio, (-550, -100), Justin Timberlake, (300, 300), Brad Pitt, (0, -400), Patrick Dempsey, (-300, 300), familiar face, [ 126. -106.], 1, 3.0642191000515595
sub-20, trial59, 14, Patrick Dempsey, ID14_IM04.bmp, (-550, -100), Hugh Jackman, (300, 300), Keanu Reeves, (0, -400), Ryan Reynolds, (-300, 300), Robert Pattinson, (550, -100), familiar face, [ 132. -107.], 1, 2.4516363000730053
sub-20, trial37, 05, Daniel Radcliffe, ID05_IM02.bmp, (-300, 300), Keanu Reeves, (0, -400), Elijah Wood, (-550, -100), Justin Timberlake, (300, 300), Ben Stiller, (550, -100), Daniel Radcliffe, [-212.  283.], 1, 10.303387099993415
sub-20, trial22, 04, Daniel Craig, ID04_IM01.bmp, (-550, -100), George Clooney, (0, -400), Elijah Wood, (300, 300), Justin Timberlake, (550, -100), Ben Affleck, (-300, 300), Daniel Craig, [-404.  -92.], 1, 3.200793799944222
sub-20, trial50, 10, Keanu Reeves, ID10_IM04.bmp, (550, -100), Daniel Radcliffe, (300, 300), Ryan Gosling, (-550, -100), Orlando Bloom, (-300, 300), Hugh Jackman, (0, -400), familiar face, [ -50. -114.], 1, 0.8787937999004498
sub-20, trial68, 03, Brad Pitt, ID03_IM01.bmp, (-550, -100), Robert Downey Jr, (-300, 300), Ryan Gosling, (300, 300), George Clooney, (0, -400), Hugh Jackman, (550, -100), Brad Pitt, [-388.  -79.], 1, 2.473420799942687
sub-20, trial2, 07, George Clooney, ID07_IM02.bmp, (550, -100), Ryan Reynolds, (0, -400), Daniel Radcliffe, (-550, -100), Justin Timberlake, (-300, 300), Elijah Wood, (300, 300), George Clooney, [ 453. -103.], 1, 1.3483611000701785
sub-20, trial30, 01, Ben Affleck, ID01_IM04.bmp, (0, -400), Ryan Gosling, (300, 300), George Clooney, (-550, -100), Elijah Wood, (550, -100), Ben Stiller, (-300, 300), familiar face, [  86. -117.], 1, 1.8442857000045478
sub-20, trial54, 18, Ryan Reynolds, ID18_IM03.bmp, (0, -400), Justin Timberlake, (550, -100), Hugh Jackman, (-550, -100), Ben Affleck, (-300, 300), Daniel Radcliffe, (300, 300), familiar face, [ 142. -119.], 1, 2.393916300032288
sub-20, trial51, 06, Elijah Wood, ID06_IM01.bmp, (-550, -100), Ryan Reynolds, (300, 300), Patrick Dempsey, (0, -400), Ryan Gosling, (-300, 300), Ben Stiller, (550, -100), familiar face, [ 142. -119.], 1, 2.269297600025311
sub-20, trial56, 11, Leonardo DiCaprio, ID11_IM03.bmp, (550, -100), Ben Affleck, (-550, -100), Ryan Reynolds, (0, -400), George Clooney, (-300, 300), Daniel Radcliffe, (300, 300), Leonardo DiCaprio, [ 452. -121.], 1, 1.2336235999828205
sub-20, trial29, 08, Hugh Jackman, ID08_IM02.bmp, (-550, -100), Robert Downey Jr, (0, -400), Elijah Wood, (300, 300), Daniel Craig, (-300, 300), Leonardo DiCaprio, (550, -100), familiar face, [ 134. -124.], 1, 3.903246600064449
sub-20, trial41, 16, Robert Pattinson, ID16_IM01.bmp, (-550, -100), Keanu Reeves, (550, -100), Matt Damon, (300, 300), Orlando Bloom, (0, -400), Ben Stiller, (-300, 300), familiar face, [ 137. -124.], 1, 1.1284329999471083
