subject,trial,celeb_id,celeb_name,celeb_image,celeb_position,rand0_name,rand0_pos,rand1_name,rand1_pos,rand2_name,rand2_pos,rand3_name,rand3_pos,answer_celeb,answer_position,correct,rt
sub-23, trial48, 09, Justin Timberlake, ID09_IM02.bmp, (-550, -100), Ryan Gosling, (550, -100), Robert Downey Jr, (-300, 300), Patrick Dempsey, (0, -400), Matt Damon, (300, 300), Justin Timberlake, [-391.  -85.], 1, 4.222440600016853
sub-23, trial34, 03, Brad Pitt, ID03_IM02.bmp, (-550, -100), Robert Pattinson, (-300, 300), Patrick Dempsey, (300, 300), Ryan Gosling, (550, -100), Keanu Reeves, (0, -400), Brad Pitt, [-479. -124.], 1, 2.8919192999892402
sub-23, trial53, 18, Ryan Reynolds, ID18_IM01.bmp, (550, -100), Ben Stiller, (300, 300), Robert Pattinson, (-550, -100), Keanu Reeves, (-300, 300), Patrick Dempsey, (0, -400), Ryan Reynolds, [ 404. -124.], 1, 3.406713000003947
sub-23, trial30, 05, Daniel Radcliffe, ID05_IM04.bmp, (-300, 300), Orlando Bloom, (550, -100), Ryan Gosling, (-550, -100), Ryan Reynolds, (0, -400), Robert Downey Jr, (300, 300), Daniel Radcliffe, [-170.  268.], 1, 4.827702200011117
sub-23, trial26, 07, George Clooney, ID07_IM01.bmp, (300, 300), Elijah Wood, (550, -100), Robert Pattinson, (0, -400), Ben Affleck, (-550, -100), Daniel Radcliffe, (-300, 300), George Clooney, [205. 279.], 1, 2.6882059999916237
sub-23, trial29, 11, Leonardo DiCaprio, ID11_IM02.bmp, (-550, -100), Matt Damon, (300, 300), Ryan Reynolds, (550, -100), George Clooney, (0, -400), Daniel Craig, (-300, 300), Leonardo DiCaprio, [-489. -117.], 1, 4.354423399985535
sub-23, trial27, 01, Ben Affleck, ID01_IM02.bmp, (550, -100), George Clooney, (-300, 300), Robert Pattinson, (0, -400), Ben Stiller, (300, 300), Patrick Dempsey, (-550, -100), familiar face, [  11. -112.], 1, 7.296947800001362
sub-23, trial20, 18, Ryan Reynolds, ID18_IM02.bmp, (-550, -100), Leonardo DiCaprio, (550, -100), Ryan Gosling, (-300, 300), Robert Downey Jr, (0, -400), Matt Damon, (300, 300), Ryan Reynolds, [-418. -111.], 1, 1.947868599992944
sub-23, trial40, 17, Ryan Gosling, ID17_IM04.bmp, (300, 300), Patrick Dempsey, (-300, 300), Ryan Reynolds, (550, -100), Justin Timberlake, (-550, -100), Brad Pitt, (0, -400), Ryan Gosling, [190. 269.], 1, 2.9002892000135034
sub-23, trial63, 13, Orlando Bloom, ID13_IM03.bmp, (0, -400), Daniel Radcliffe, (-300, 300), Daniel Craig, (-550, -100), Hugh Jackman, (300, 300), George Clooney, (550, -100), Orlando Bloom, [  73. -399.], 1, 3.2219135999912396
sub-23, trial22, 01, Ben Affleck, ID01_IM01.bmp, (550, -100), Orlando Bloom, (0, -400), Ryan Reynolds, (-550, -100), Robert Pattinson, (-300, 300), Elijah Wood, (300, 300), familiar face, [  -3. -112.], 1, 3.459470000001602
sub-23, trial8, 08, Hugh Jackman, ID08_IM03.bmp, (-550, -100), Keanu Reeves, (-300, 300), Leonardo DiCaprio, (550, -100), Orlando Bloom, (300, 300), Robert Pattinson, (0, -400), Hugh Jackman, [-437. -113.], 1, 2.0634253000025637
sub-23, trial51, 11, Leonardo DiCaprio, ID11_IM03.bmp, (-550, -100), Orlando Bloom, (300, 300), Daniel Radcliffe, (550, -100), George Clooney, (0, -400), Patrick Dempsey, (-300, 300), Leonardo DiCaprio, [-437. -113.], 1, 1.0011507999734022
sub-23, trial2, 16, Robert Pattinson, ID16_IM03.bmp, (300, 300), Leonardo DiCaprio, (550, -100), Justin Timberlake, (0, -400), Ben Stiller, (-550, -100), Daniel Craig, (-300, 300), Robert Pattinson, [264. 294.], 1, 1.9929147000075318
sub-23, trial67, 12, Matt Damon, ID12_IM02.bmp, (-550, -100), Robert Pattinson, (-300, 300), George Clooney, (0, -400), Daniel Radcliffe, (550, -100), Keanu Reeves, (300, 300), idk, [49. 75.], 0, 1.7189316999865696
sub-23, trial52, 14, Patrick Dempsey, ID14_IM01.bmp, (-300, 300), Ben Affleck, (300, 300), Orlando Bloom, (0, -400), Hugh Jackman, (-550, -100), Daniel Radcliffe, (550, -100), familiar face, [ 39. -97.], 1, 6.055726599995978
sub-23, trial38, 02, Ben Stiller, ID02_IM02.bmp, (-300, 300), Matt Damon, (550, -100), Orlando Bloom, (-550, -100), Ben Affleck, (0, -400), Robert Downey Jr, (300, 300), familiar face, [ 39. -95.], 1, 3.9070981000259053
sub-23, trial55, 10, Keanu Reeves, ID10_IM01.bmp, (300, 300), Daniel Radcliffe, (-550, -100), Ben Stiller, (0, -400), Orlando Bloom, (-300, 300), Ryan Reynolds, (550, -100), Keanu Reeves, [224. 279.], 1, 2.7885147999913897
sub-23, trial49, 16, Robert Pattinson, ID16_IM01.bmp, (-300, 300), Brad Pitt, (300, 300), Ben Affleck, (550, -100), Daniel Craig, (0, -400), Orlando Bloom, (-550, -100), Robert Pattinson, [-350.  307.], 1, 2.62682199999108
sub-23, trial56, 03, Brad Pitt, ID03_IM04.bmp, (-550, -100), Ben Stiller, (550, -100), Patrick Dempsey, (-300, 300), Ben Affleck, (300, 300), Daniel Radcliffe, (0, -400), Brad Pitt, [-525. -122.], 1, 1.6599388999748044
sub-23, trial9, 15, Robert Downey Jr, ID15_IM03.bmp, (300, 300), Orlando Bloom, (-300, 300), Daniel Craig, (-550, -100), Robert Pattinson, (550, -100), Ryan Gosling, (0, -400), Robert Downey Jr, [240. 293.], 1, 2.803658599994378
sub-23, trial39, 17, Ryan Gosling, ID17_IM02.bmp, (-300, 300), Matt Damon, (550, -100), Justin Timberlake, (0, -400), Elijah Wood, (-550, -100), Daniel Craig, (300, 300), Ryan Gosling, [-234.  295.], 1, 5.3206304000050295
sub-23, trial44, 03, Brad Pitt, ID03_IM03.bmp, (0, -400), Justin Timberlake, (-300, 300), Orlando Bloom, (550, -100), Hugh Jackman, (-550, -100), Keanu Reeves, (300, 300), Brad Pitt, [ 115. -412.], 1, 2.2342736999853514
sub-23, trial14, 03, Brad Pitt, ID03_IM01.bmp, (-300, 300), Daniel Craig, (300, 300), Leonardo DiCaprio, (0, -400), Ryan Reynolds, (-550, -100), Ryan Gosling, (550, -100), Brad Pitt, [-317.  314.], 1, 3.717569000000367
sub-23, trial10, 15, Robert Downey Jr, ID15_IM02.bmp, (550, -100), Patrick Dempsey, (0, -400), Ben Stiller, (-550, -100), Ryan Gosling, (-300, 300), Keanu Reeves, (300, 300), Robert Downey Jr, [476. -76.], 1, 4.182825900003081
sub-23, trial23, 17, Ryan Gosling, ID17_IM01.bmp, (-550, -100), Orlando Bloom, (-300, 300), Robert Downey Jr, (550, -100), Ryan Reynolds, (300, 300), George Clooney, (0, -400), Ryan Gosling, [-411.  -96.], 1, 4.596809100010432
sub-23, trial6, 09, Justin Timberlake, ID09_IM03.bmp, (-300, 300), Matt Damon, (550, -100), Robert Downey Jr, (0, -400), Daniel Radcliffe, (-550, -100), Orlando Bloom, (300, 300), Justin Timberlake, [-198.  280.], 1, 1.4673850999970455
sub-23, trial28, 10, Keanu Reeves, ID10_IM02.bmp, (0, -400), Daniel Craig, (550, -100), Hugh Jackman, (300, 300), Patrick Dempsey, (-300, 300), Leonardo DiCaprio, (-550, -100), Keanu Reeves, [ -21. -420.], 1, 1.6864466999832075
sub-23, trial64, 13, Orlando Bloom, ID13_IM01.bmp, (0, -400), Robert Pattinson, (-550, -100), Ryan Reynolds, (550, -100), Leonardo DiCaprio, (300, 300), Ben Affleck, (-300, 300), Orlando Bloom, [  -8. -382.], 1, 2.161736900015967
sub-23, trial72, 01, Ben Affleck, ID01_IM04.bmp, (-300, 300), Leonardo DiCaprio, (-550, -100), Daniel Craig, (550, -100), Brad Pitt, (0, -400), Elijah Wood, (300, 300), familiar face, [  52. -111.], 1, 3.3771448000043165
sub-23, trial68, 09, Justin Timberlake, ID09_IM01.bmp, (300, 300), Matt Damon, (550, -100), Robert Pattinson, (-300, 300), George Clooney, (0, -400), Hugh Jackman, (-550, -100), Justin Timberlake, [331. 310.], 1, 1.9675954999984242
sub-23, trial4, 10, Keanu Reeves, ID10_IM03.bmp, (0, -400), Ben Stiller, (-550, -100), Daniel Craig, (300, 300), Ben Affleck, (-300, 300), Matt Damon, (550, -100), Keanu Reeves, [  68. -414.], 1, 2.198385200026678
sub-23, trial13, 09, Justin Timberlake, ID09_IM04.bmp, (300, 300), Orlando Bloom, (0, -400), Ryan Reynolds, (550, -100), Leonardo DiCaprio, (-550, -100), Keanu Reeves, (-300, 300), Justin Timberlake, [236. 284.], 1, 5.963857599999756
sub-23, trial58, 05, Daniel Radcliffe, ID05_IM01.bmp, (0, -400), Patrick Dempsey, (300, 300), Ryan Gosling, (-550, -100), Hugh Jackman, (-300, 300), Keanu Reeves, (550, -100), Daniel Radcliffe, [  78. -422.], 1, 2.2678371999936644
sub-23, trial70, 14, Patrick Dempsey, ID14_IM02.bmp, (-300, 300), Robert Pattinson, (-550, -100), Daniel Craig, (550, -100), Matt Damon, (0, -400), Orlando Bloom, (300, 300), familiar face, [ 104. -126.], 1, 1.270812400005525
sub-23, trial54, 06, Elijah Wood, ID06_IM04.bmp, (550, -100), Daniel Craig, (0, -400), Ryan Reynolds, (300, 300), Hugh Jackman, (-550, -100), Matt Damon, (-300, 300), familiar face, [ 104. -126.], 1, 4.888270900002681
sub-23, trial18, 10, Keanu Reeves, ID10_IM04.bmp, (-550, -100), Hugh Jackman, (-300, 300), Ben Affleck, (300, 300), George Clooney, (0, -400), Ryan Reynolds, (550, -100), Keanu Reeves, [-422. -124.], 1, 1.9325985999894328
sub-23, trial36, 15, Robert Downey Jr, ID15_IM04.bmp, (300, 300), Ben Affleck, (550, -100), Robert Pattinson, (-300, 300), Ryan Reynolds, (0, -400), Brad Pitt, (-550, -100), Robert Downey Jr, [336. 293.], 1, 2.237654399999883
sub-23, trial66, 04, Daniel Craig, ID04_IM02.bmp, (550, -100), Matt Damon, (-300, 300), Ben Stiller, (300, 300), Keanu Reeves, (0, -400), Orlando Bloom, (-550, -100), familiar face, [  6. -97.], 1, 2.8651424999989104
sub-23, trial24, 07, George Clooney, ID07_IM03.bmp, (550, -100), Justin Timberlake, (0, -400), Hugh Jackman, (-550, -100), Keanu Reeves, (-300, 300), Elijah Wood, (300, 300), George Clooney, [ 652. -111.], 1, 1.9406785999890417
sub-23, trial25, 08, Hugh Jackman, ID08_IM01.bmp, (-550, -100), Elijah Wood, (300, 300), Patrick Dempsey, (-300, 300), Matt Damon, (550, -100), Ryan Gosling, (0, -400), Hugh Jackman, [-479.  -81.], 1, 1.548302099981811
sub-23, trial65, 18, Ryan Reynolds, ID18_IM04.bmp, (-550, -100), Keanu Reeves, (550, -100), Justin Timberlake, (0, -400), Robert Pattinson, (300, 300), Matt Damon, (-300, 300), Ryan Reynolds, [-477.  -99.], 1, 1.6280494999955408
sub-23, trial15, 11, Leonardo DiCaprio, ID11_IM01.bmp, (-300, 300), Brad Pitt, (0, -400), Orlando Bloom, (-550, -100), Robert Pattinson, (300, 300), Ben Affleck, (550, -100), Leonardo DiCaprio, [-191.  311.], 1, 1.7138267000264022
sub-23, trial57, 05, Daniel Radcliffe, ID05_IM03.bmp, (-300, 300), Ryan Gosling, (300, 300), Daniel Craig, (0, -400), Ben Stiller, (-550, -100), Ben Affleck, (550, -100), Daniel Radcliffe, [-276.  283.], 1, 2.0591200000199024
sub-23, trial21, 06, Elijah Wood, ID06_IM02.bmp, (300, 300), Matt Damon, (0, -400), George Clooney, (550, -100), Ben Stiller, (-550, -100), Daniel Craig, (-300, 300), familiar face, [-39. -79.], 1, 1.101929199998267
sub-23, trial11, 12, Matt Damon, ID12_IM03.bmp, (550, -100), Robert Pattinson, (300, 300), Daniel Craig, (-300, 300), Daniel Radcliffe, (0, -400), Hugh Jackman, (-550, -100), idk, [-19.  33.], 0, 1.1434335999947507
sub-23, trial50, 07, George Clooney, ID07_IM02.bmp, (550, -100), Ryan Gosling, (-300, 300), Daniel Radcliffe, (0, -400), Daniel Craig, (300, 300), Hugh Jackman, (-550, -100), George Clooney, [470. -88.], 1, 2.30397459998494
sub-23, trial33, 02, Ben Stiller, ID02_IM01.bmp, (0, -400), Hugh Jackman, (-550, -100), George Clooney, (-300, 300), Robert Downey Jr, (300, 300), Leonardo DiCaprio, (550, -100), familiar face, [-13. -79.], 1, 2.8334882000053767
sub-23, trial16, 06, Elijah Wood, ID06_IM03.bmp, (0, -400), Daniel Craig, (550, -100), Daniel Radcliffe, (-550, -100), Ben Affleck, (-300, 300), Brad Pitt, (300, 300), familiar face, [-13. -79.], 1, 1.0127443000092171
sub-23, trial61, 07, George Clooney, ID07_IM04.bmp, (-300, 300), Brad Pitt, (300, 300), Ryan Gosling, (550, -100), Ben Affleck, (0, -400), Robert Downey Jr, (-550, -100), George Clooney, [-285.  295.], 1, 1.8681298999872524
sub-23, trial19, 05, Daniel Radcliffe, ID05_IM02.bmp, (-550, -100), Elijah Wood, (-300, 300), Leonardo DiCaprio, (550, -100), Ryan Reynolds, (0, -400), George Clooney, (300, 300), Daniel Radcliffe, [-434. -126.], 1, 1.1428344000014476
sub-23, trial32, 02, Ben Stiller, ID02_IM04.bmp, (550, -100), Elijah Wood, (0, -400), Ryan Gosling, (300, 300), Leonardo DiCaprio, (-550, -100), Hugh Jackman, (-300, 300), familiar face, [  2. -98.], 1, 4.9988773000077344
sub-23, trial62, 14, Patrick Dempsey, ID14_IM04.bmp, (550, -100), Ben Stiller, (-300, 300), Elijah Wood, (0, -400), Orlando Bloom, (-550, -100), George Clooney, (300, 300), familiar face, [  2. -98.], 1, 3.883136000018567
sub-23, trial42, 13, Orlando Bloom, ID13_IM02.bmp, (0, -400), Ben Affleck, (-300, 300), Matt Damon, (-550, -100), Ryan Gosling, (550, -100), Hugh Jackman, (300, 300), Orlando Bloom, [  15. -405.], 1, 1.3597324999864213
sub-23, trial46, 08, Hugh Jackman, ID08_IM02.bmp, (300, 300), Keanu Reeves, (0, -400), Matt Damon, (550, -100), Daniel Craig, (-550, -100), Robert Downey Jr, (-300, 300), Hugh Jackman, [232. 326.], 1, 2.7588443999993615
sub-23, trial47, 12, Matt Damon, ID12_IM01.bmp, (300, 300), Keanu Reeves, (-550, -100), Ryan Reynolds, (550, -100), Justin Timberlake, (0, -400), Ryan Gosling, (-300, 300), idk, [69. 42.], 0, 6.222309499979019
sub-23, trial35, 16, Robert Pattinson, ID16_IM04.bmp, (300, 300), Elijah Wood, (0, -400), Daniel Radcliffe, (550, -100), Justin Timberlake, (-550, -100), Brad Pitt, (-300, 300), Robert Pattinson, [251. 301.], 1, 3.6194623000046704
sub-23, trial41, 15, Robert Downey Jr, ID15_IM01.bmp, (300, 300), Keanu Reeves, (-550, -100), Hugh Jackman, (550, -100), Leonardo DiCaprio, (-300, 300), Ben Affleck, (0, -400), Robert Downey Jr, [172. 282.], 1, 1.096576300013112
sub-23, trial69, 16, Robert Pattinson, ID16_IM02.bmp, (-550, -100), Robert Downey Jr, (550, -100), George Clooney, (0, -400), Matt Damon, (-300, 300), Ryan Gosling, (300, 300), Robert Pattinson, [-417. -113.], 1, 3.0344335999980103
sub-23, trial31, 11, Leonardo DiCaprio, ID11_IM04.bmp, (-300, 300), Ryan Reynolds, (550, -100), Daniel Craig, (-550, -100), Robert Downey Jr, (0, -400), Matt Damon, (300, 300), Leonardo DiCaprio, [-256.  272.], 1, 1.7834165999956895
sub-23, trial17, 04, Daniel Craig, ID04_IM04.bmp, (-300, 300), Patrick Dempsey, (300, 300), Robert Pattinson, (550, -100), Elijah Wood, (0, -400), Ryan Gosling, (-550, -100), familiar face, [  65. -114.], 1, 4.078466500010109
sub-23, trial60, 18, Ryan Reynolds, ID18_IM03.bmp, (550, -100), Daniel Radcliffe, (-300, 300), Orlando Bloom, (300, 300), Matt Damon, (0, -400), Ben Stiller, (-550, -100), Ryan Reynolds, [ 458. -106.], 1, 1.8650919999927282
sub-23, trial12, 14, Patrick Dempsey, ID14_IM03.bmp, (550, -100), Ryan Gosling, (300, 300), Ryan Reynolds, (0, -400), Ben Stiller, (-300, 300), Elijah Wood, (-550, -100), familiar face, [-40. -90.], 1, 2.757156199979363
sub-23, trial43, 02, Ben Stiller, ID02_IM03.bmp, (300, 300), Daniel Craig, (-300, 300), George Clooney, (0, -400), Robert Pattinson, (550, -100), Robert Downey Jr, (-550, -100), familiar face, [-38. -89.], 1, 3.300480100006098
sub-23, trial59, 06, Elijah Wood, ID06_IM01.bmp, (0, -400), Ryan Gosling, (-550, -100), Ben Stiller, (-300, 300), Hugh Jackman, (300, 300), Robert Downey Jr, (550, -100), familiar face, [-38. -89.], 1, 0.9797536999976728
sub-23, trial37, 01, Ben Affleck, ID01_IM03.bmp, (-300, 300), Matt Damon, (-550, -100), Patrick Dempsey, (0, -400), Hugh Jackman, (550, -100), Orlando Bloom, (300, 300), familiar face, [  50. -106.], 1, 5.56397270000889
sub-23, trial3, 13, Orlando Bloom, ID13_IM04.bmp, (-550, -100), Ben Stiller, (300, 300), Justin Timberlake, (0, -400), Robert Pattinson, (-300, 300), George Clooney, (550, -100), Orlando Bloom, [-447.  -96.], 1, 2.4592838999815285
sub-23, trial7, 17, Ryan Gosling, ID17_IM03.bmp, (550, -100), Orlando Bloom, (300, 300), Robert Downey Jr, (-550, -100), Ryan Reynolds, (-300, 300), Patrick Dempsey, (0, -400), Ryan Gosling, [ 395. -124.], 1, 2.414597099996172
sub-23, trial5, 12, Matt Damon, ID12_IM04.bmp, (-300, 300), Robert Pattinson, (-550, -100), Orlando Bloom, (300, 300), Ryan Gosling, (0, -400), Keanu Reeves, (550, -100), idk, [71. 45.], 0, 1.0526488000177778
sub-23, trial1, 04, Daniel Craig, ID04_IM03.bmp, (-550, -100), George Clooney, (550, -100), Orlando Bloom, (-300, 300), Ryan Gosling, (300, 300), Ben Stiller, (0, -400), familiar face, [ 87. -77.], 1, 4.232008699997095
sub-23, trial71, 08, Hugh Jackman, ID08_IM04.bmp, (0, -400), Ryan Gosling, (-550, -100), Orlando Bloom, (300, 300), Ryan Reynolds, (550, -100), Ben Stiller, (-300, 300), Hugh Jackman, [  93. -389.], 1, 2.2041561999940313
sub-23, trial45, 04, Daniel Craig, ID04_IM01.bmp, (300, 300), Robert Pattinson, (-550, -100), Justin Timberlake, (550, -100), Matt Damon, (0, -400), Ryan Gosling, (-300, 300), familiar face, [  67. -100.], 1, 2.5139520000084303
