subject,trial,celeb_id,celeb_name,celeb_image,celeb_position,rand0_name,rand0_pos,rand1_name,rand1_pos,rand2_name,rand2_pos,rand3_name,rand3_pos,answer_celeb,answer_position,correct,rt
sub-11, trial1, 03, Brad Pitt, ID03_IM04.bmp, (0, -400), Justin Timberlake, (300, 300), Ryan Reynolds, (-300, 300), Hugh Jackman, (-550, -100), Leonardo DiCaprio, (550, -100), Brad Pitt, [  93. -375.], 1, 2.386335000046529
sub-11, trial5, 07, George Clooney, ID07_IM01.bmp, (0, -400), Orlando Bloom, (550, -100), Brad Pitt, (-550, -100), Matt Damon, (300, 300), Justin Timberlake, (-300, 300), George Clooney, [ -50. -359.], 1, 2.2490812999894843
sub-11, trial57, 06, Elijah Wood, ID06_IM02.bmp, (550, -100), George Clooney, (-300, 300), Daniel Radcliffe, (300, 300), Daniel Craig, (-550, -100), Orlando Bloom, (0, -400), idk, [ 1. 26.], 0, 3.3327872000518255
sub-11, trial51, 15, Robert Downey Jr, ID15_IM01.bmp, (300, 300), Ryan Reynolds, (550, -100), Ryan Gosling, (-550, -100), Ben Stiller, (0, -400), Robert Pattinson, (-300, 300), Robert Downey Jr, [328. 280.], 1, 2.5583305000327528
sub-11, trial66, 13, Orlando Bloom, ID13_IM03.bmp, (-550, -100), Daniel Radcliffe, (550, -100), Matt Damon, (0, -400), Ben Stiller, (-300, 300), Justin Timberlake, (300, 300), familiar face, [ 20. -82.], 1, 4.277332999976352
sub-11, trial40, 04, Daniel Craig, ID04_IM02.bmp, (-550, -100), Brad Pitt, (-300, 300), Daniel Radcliffe, (300, 300), Justin Timberlake, (550, -100), Patrick Dempsey, (0, -400), Daniel Craig, [-424. -107.], 1, 2.3204671000130475
sub-11, trial35, 06, Elijah Wood, ID06_IM01.bmp, (300, 300), Brad Pitt, (-300, 300), Leonardo DiCaprio, (-550, -100), Justin Timberlake, (550, -100), Keanu Reeves, (0, -400), familiar face, [-82. -89.], 1, 1.3853601000155322
sub-11, trial54, 08, Hugh Jackman, ID08_IM02.bmp, (300, 300), Daniel Craig, (-550, -100), Justin Timberlake, (-300, 300), Daniel Radcliffe, (0, -400), Keanu Reeves, (550, -100), familiar face, [-82. -89.], 1, 1.485711099987384
sub-11, trial28, 08, Hugh Jackman, ID08_IM03.bmp, (300, 300), Orlando Bloom, (-550, -100), Matt Damon, (-300, 300), Robert Pattinson, (0, -400), Daniel Craig, (550, -100), familiar face, [ 69. -85.], 1, 4.089775900007226
sub-11, trial60, 10, Keanu Reeves, ID10_IM03.bmp, (0, -400), Justin Timberlake, (300, 300), Ben Affleck, (-550, -100), George Clooney, (550, -100), Ryan Gosling, (-300, 300), Keanu Reeves, [   8. -420.], 1, 5.884228200011421
sub-11, trial26, 06, Elijah Wood, ID06_IM04.bmp, (550, -100), Ryan Gosling, (300, 300), Robert Pattinson, (-300, 300), Keanu Reeves, (-550, -100), Leonardo DiCaprio, (0, -400), familiar face, [ 102. -130.], 1, 5.198230599984527
sub-11, trial67, 05, Daniel Radcliffe, ID05_IM03.bmp, (300, 300), Ben Affleck, (0, -400), Brad Pitt, (-300, 300), Robert Pattinson, (550, -100), Leonardo DiCaprio, (-550, -100), Daniel Radcliffe, [221. 279.], 1, 1.2356864000321366
sub-11, trial69, 17, Ryan Gosling, ID17_IM03.bmp, (0, -400), Leonardo DiCaprio, (550, -100), Orlando Bloom, (-550, -100), Brad Pitt, (300, 300), Justin Timberlake, (-300, 300), Ryan Gosling, [   4. -398.], 1, 2.424292100011371
sub-11, trial53, 12, Matt Damon, ID12_IM02.bmp, (550, -100), Leonardo DiCaprio, (0, -400), Daniel Radcliffe, (-300, 300), Brad Pitt, (-550, -100), Daniel Craig, (300, 300), Matt Damon, [419. -97.], 1, 1.9897895999602042
sub-11, trial23, 18, Ryan Reynolds, ID18_IM04.bmp, (-300, 300), Orlando Bloom, (0, -400), Brad Pitt, (-550, -100), Leonardo DiCaprio, (300, 300), George Clooney, (550, -100), Ryan Reynolds, [-242.  303.], 1, 1.5711265999707393
sub-11, trial37, 04, Daniel Craig, ID04_IM04.bmp, (-550, -100), Hugh Jackman, (550, -100), Orlando Bloom, (300, 300), Ryan Reynolds, (0, -400), Matt Damon, (-300, 300), Daniel Craig, [-451. -121.], 1, 2.682641400024295
sub-11, trial7, 01, Ben Affleck, ID01_IM01.bmp, (-300, 300), Keanu Reeves, (550, -100), Daniel Radcliffe, (0, -400), Ryan Reynolds, (-550, -100), Daniel Craig, (300, 300), idk, [-29.  24.], 0, 1.2612885999842547
sub-11, trial17, 06, Elijah Wood, ID06_IM03.bmp, (-550, -100), Orlando Bloom, (300, 300), George Clooney, (550, -100), Ben Stiller, (-300, 300), Ben Affleck, (0, -400), familiar face, [ -26. -102.], 1, 1.2641862999880686
sub-11, trial52, 18, Ryan Reynolds, ID18_IM03.bmp, (300, 300), Matt Damon, (0, -400), Ben Affleck, (-550, -100), Brad Pitt, (-300, 300), Daniel Craig, (550, -100), Ryan Reynolds, [210. 305.], 1, 1.5963560999953188
sub-11, trial47, 05, Daniel Radcliffe, ID05_IM01.bmp, (-300, 300), Robert Downey Jr, (0, -400), Daniel Craig, (300, 300), Ben Stiller, (550, -100), Hugh Jackman, (-550, -100), Daniel Radcliffe, [-160.  302.], 1, 0.857792700000573
sub-11, trial16, 02, Ben Stiller, ID02_IM03.bmp, (-300, 300), Robert Downey Jr, (0, -400), Brad Pitt, (-550, -100), Justin Timberlake, (300, 300), Keanu Reeves, (550, -100), Ben Stiller, [-168.  262.], 1, 3.0925646999967285
sub-11, trial64, 10, Keanu Reeves, ID10_IM01.bmp, (-300, 300), Ben Stiller, (300, 300), Patrick Dempsey, (550, -100), Justin Timberlake, (0, -400), George Clooney, (-550, -100), idk, [-12.  34.], 0, 0.8226044999901205
sub-11, trial34, 04, Daniel Craig, ID04_IM01.bmp, (550, -100), Keanu Reeves, (-300, 300), Hugh Jackman, (-550, -100), Patrick Dempsey, (300, 300), Robert Pattinson, (0, -400), Daniel Craig, [ 421. -123.], 1, 3.0037086000083946
sub-11, trial25, 01, Ben Affleck, ID01_IM02.bmp, (-550, -100), George Clooney, (0, -400), Matt Damon, (550, -100), Ryan Gosling, (-300, 300), Ryan Reynolds, (300, 300), idk, [90. 33.], 0, 0.9942849999642931
sub-11, trial58, 17, Ryan Gosling, ID17_IM02.bmp, (550, -100), Keanu Reeves, (-300, 300), Brad Pitt, (300, 300), Robert Pattinson, (-550, -100), Orlando Bloom, (0, -400), Ryan Gosling, [447. -69.], 1, 2.015600499988068
sub-11, trial9, 09, Justin Timberlake, ID09_IM01.bmp, (-550, -100), Hugh Jackman, (300, 300), Robert Downey Jr, (0, -400), Daniel Radcliffe, (550, -100), Daniel Craig, (-300, 300), Justin Timberlake, [-426. -137.], 1, 2.2775617000297643
sub-11, trial8, 01, Ben Affleck, ID01_IM04.bmp, (-550, -100), Keanu Reeves, (0, -400), Hugh Jackman, (300, 300), Elijah Wood, (550, -100), Matt Damon, (-300, 300), idk, [-6. 33.], 0, 1.6890677000046708
sub-11, trial29, 16, Robert Pattinson, ID16_IM02.bmp, (-300, 300), Hugh Jackman, (0, -400), Robert Downey Jr, (-550, -100), Orlando Bloom, (550, -100), Keanu Reeves, (300, 300), Robert Pattinson, [-174.  259.], 1, 0.8747051999671385
sub-11, trial71, 03, Brad Pitt, ID03_IM02.bmp, (300, 300), Matt Damon, (-550, -100), Patrick Dempsey, (550, -100), Leonardo DiCaprio, (0, -400), George Clooney, (-300, 300), George Clooney, [-153.  266.], 0, 6.316633599984925
sub-11, trial6, 18, Ryan Reynolds, ID18_IM01.bmp, (-550, -100), Ben Affleck, (550, -100), Robert Downey Jr, (300, 300), Daniel Radcliffe, (0, -400), Keanu Reeves, (-300, 300), Ryan Reynolds, [-428. -132.], 1, 2.285901300027035
sub-11, trial14, 14, Patrick Dempsey, ID14_IM03.bmp, (550, -100), Daniel Radcliffe, (0, -400), Robert Pattinson, (300, 300), Brad Pitt, (-300, 300), Ryan Gosling, (-550, -100), Patrick Dempsey, [495. -77.], 1, 1.3765755000058562
sub-11, trial38, 11, Leonardo DiCaprio, ID11_IM01.bmp, (300, 300), Ryan Reynolds, (550, -100), Justin Timberlake, (-300, 300), Daniel Craig, (-550, -100), Elijah Wood, (0, -400), Leonardo DiCaprio, [371. 271.], 1, 1.5505763000110164
sub-11, trial70, 09, Justin Timberlake, ID09_IM04.bmp, (-550, -100), Ben Stiller, (550, -100), Elijah Wood, (0, -400), Brad Pitt, (-300, 300), George Clooney, (300, 300), Justin Timberlake, [-443.  -97.], 1, 1.7592810000060126
sub-11, trial50, 07, George Clooney, ID07_IM04.bmp, (300, 300), Daniel Craig, (-550, -100), Patrick Dempsey, (0, -400), Elijah Wood, (-300, 300), Leonardo DiCaprio, (550, -100), George Clooney, [238. 274.], 1, 1.7357096000341699
sub-11, trial20, 15, Robert Downey Jr, ID15_IM02.bmp, (550, -100), Justin Timberlake, (300, 300), Patrick Dempsey, (-300, 300), Keanu Reeves, (0, -400), Matt Damon, (-550, -100), Robert Downey Jr, [453. -85.], 1, 2.4474056999897584
sub-11, trial61, 14, Patrick Dempsey, ID14_IM02.bmp, (300, 300), Ryan Gosling, (-300, 300), Leonardo DiCaprio, (0, -400), Brad Pitt, (-550, -100), Elijah Wood, (550, -100), Patrick Dempsey, [316. 284.], 1, 0.8032384000252932
sub-11, trial15, 11, Leonardo DiCaprio, ID11_IM03.bmp, (550, -100), Ryan Reynolds, (0, -400), Orlando Bloom, (-550, -100), Brad Pitt, (-300, 300), Elijah Wood, (300, 300), Leonardo DiCaprio, [428. -70.], 1, 1.0897746999980882
sub-11, trial45, 13, Orlando Bloom, ID13_IM04.bmp, (-550, -100), Elijah Wood, (0, -400), Ben Affleck, (300, 300), Daniel Craig, (-300, 300), Robert Pattinson, (550, -100), idk, [21. 62.], 0, 1.0518523000064306
sub-11, trial63, 08, Hugh Jackman, ID08_IM01.bmp, (300, 300), Patrick Dempsey, (0, -400), Elijah Wood, (550, -100), Daniel Craig, (-300, 300), Justin Timberlake, (-550, -100), familiar face, [  50. -118.], 1, 3.1030546999536455
sub-11, trial39, 01, Ben Affleck, ID01_IM03.bmp, (-550, -100), Patrick Dempsey, (300, 300), Daniel Radcliffe, (0, -400), Orlando Bloom, (550, -100), Hugh Jackman, (-300, 300), idk, [49. 26.], 0, 0.8170054999645799
sub-11, trial13, 13, Orlando Bloom, ID13_IM02.bmp, (300, 300), Hugh Jackman, (-300, 300), Daniel Radcliffe, (550, -100), Elijah Wood, (-550, -100), Justin Timberlake, (0, -400), idk, [55. 66.], 0, 0.8778674000059254
sub-11, trial10, 02, Ben Stiller, ID02_IM02.bmp, (-550, -100), Justin Timberlake, (0, -400), Matt Damon, (-300, 300), Brad Pitt, (550, -100), Hugh Jackman, (300, 300), Ben Stiller, [-406. -120.], 1, 1.728863199998159
sub-11, trial56, 03, Brad Pitt, ID03_IM03.bmp, (-550, -100), Hugh Jackman, (550, -100), Patrick Dempsey, (300, 300), Keanu Reeves, (0, -400), Robert Pattinson, (-300, 300), Brad Pitt, [-395.  -82.], 1, 3.9286295999772847
sub-11, trial4, 12, Matt Damon, ID12_IM04.bmp, (0, -400), Daniel Radcliffe, (550, -100), Ryan Gosling, (-550, -100), Patrick Dempsey, (300, 300), Daniel Craig, (-300, 300), Matt Damon, [  10. -363.], 1, 2.145203899999615
sub-11, trial49, 03, Brad Pitt, ID03_IM01.bmp, (300, 300), Matt Damon, (550, -100), Keanu Reeves, (-300, 300), Robert Pattinson, (-550, -100), Justin Timberlake, (0, -400), Brad Pitt, [313. 294.], 1, 2.065228699997533
sub-11, trial19, 02, Ben Stiller, ID02_IM01.bmp, (0, -400), Robert Pattinson, (-300, 300), Ryan Reynolds, (-550, -100), Patrick Dempsey, (300, 300), Daniel Craig, (550, -100), Ben Stiller, [ 125. -363.], 1, 3.1883817999623716
sub-11, trial22, 14, Patrick Dempsey, ID14_IM04.bmp, (-550, -100), Brad Pitt, (550, -100), Hugh Jackman, (300, 300), Keanu Reeves, (0, -400), Orlando Bloom, (-300, 300), Patrick Dempsey, [-407.  -78.], 1, 1.2350424000178464
sub-11, trial42, 07, George Clooney, ID07_IM02.bmp, (0, -400), Robert Pattinson, (-300, 300), Robert Downey Jr, (550, -100), Elijah Wood, (300, 300), Keanu Reeves, (-550, -100), George Clooney, [  85. -400.], 1, 3.5757765999878757
sub-11, trial2, 10, Keanu Reeves, ID10_IM02.bmp, (-550, -100), Patrick Dempsey, (300, 300), Ryan Reynolds, (550, -100), Daniel Craig, (0, -400), Elijah Wood, (-300, 300), idk, [105.  49.], 0, 1.49332950002281
sub-11, trial30, 11, Leonardo DiCaprio, ID11_IM04.bmp, (550, -100), Patrick Dempsey, (0, -400), Daniel Radcliffe, (-300, 300), Ben Stiller, (300, 300), Robert Downey Jr, (-550, -100), Leonardo DiCaprio, [514. -87.], 1, 2.176480099966284
sub-11, trial12, 13, Orlando Bloom, ID13_IM01.bmp, (-550, -100), Ryan Reynolds, (0, -400), Robert Pattinson, (300, 300), George Clooney, (-300, 300), Robert Downey Jr, (550, -100), Orlando Bloom, [-580.  -94.], 1, 2.0081588000175543
sub-11, trial62, 16, Robert Pattinson, ID16_IM03.bmp, (-300, 300), Ben Stiller, (300, 300), Patrick Dempsey, (-550, -100), Matt Damon, (0, -400), Leonardo DiCaprio, (550, -100), Robert Pattinson, [-195.  284.], 1, 3.06115259998478
sub-11, trial27, 15, Robert Downey Jr, ID15_IM03.bmp, (550, -100), Ben Affleck, (-300, 300), Keanu Reeves, (300, 300), Ben Stiller, (0, -400), Daniel Radcliffe, (-550, -100), Robert Downey Jr, [469. -87.], 1, 1.2245820999960415
sub-11, trial32, 11, Leonardo DiCaprio, ID11_IM02.bmp, (550, -100), Ben Stiller, (300, 300), Ryan Gosling, (-300, 300), Justin Timberlake, (-550, -100), George Clooney, (0, -400), Leonardo DiCaprio, [465. -87.], 1, 0.973035900038667
sub-11, trial72, 12, Matt Damon, ID12_IM01.bmp, (-550, -100), Orlando Bloom, (550, -100), Keanu Reeves, (300, 300), Leonardo DiCaprio, (-300, 300), Elijah Wood, (0, -400), Matt Damon, [-376.  -81.], 1, 1.316089500032831
sub-11, trial59, 08, Hugh Jackman, ID08_IM04.bmp, (300, 300), Elijah Wood, (0, -400), Daniel Radcliffe, (-550, -100), Orlando Bloom, (-300, 300), Matt Damon, (550, -100), familiar face, [  -8. -127.], 1, 1.5580340000451542
sub-11, trial36, 14, Patrick Dempsey, ID14_IM01.bmp, (0, -400), Justin Timberlake, (-300, 300), Daniel Craig, (300, 300), Leonardo DiCaprio, (-550, -100), Elijah Wood, (550, -100), Patrick Dempsey, [  82. -376.], 1, 1.8930606999783777
sub-11, trial48, 09, Justin Timberlake, ID09_IM02.bmp, (550, -100), Robert Downey Jr, (-300, 300), Keanu Reeves, (300, 300), Orlando Bloom, (-550, -100), Leonardo DiCaprio, (0, -400), Justin Timberlake, [398. -89.], 1, 1.7112609000178054
sub-11, trial55, 17, Ryan Gosling, ID17_IM01.bmp, (550, -100), Elijah Wood, (-300, 300), Robert Pattinson, (0, -400), Ben Affleck, (300, 300), Hugh Jackman, (-550, -100), Ryan Gosling, [ 492. -102.], 1, 2.4329733999911696
sub-11, trial3, 12, Matt Damon, ID12_IM03.bmp, (-300, 300), Orlando Bloom, (-550, -100), Hugh Jackman, (0, -400), Elijah Wood, (300, 300), George Clooney, (550, -100), Matt Damon, [-175.  318.], 1, 1.1174823999754153
sub-11, trial68, 16, Robert Pattinson, ID16_IM04.bmp, (-550, -100), George Clooney, (300, 300), Brad Pitt, (550, -100), Elijah Wood, (0, -400), Daniel Radcliffe, (-300, 300), Robert Pattinson, [-410. -112.], 1, 1.2779638999490999
sub-11, trial46, 18, Ryan Reynolds, ID18_IM02.bmp, (550, -100), Justin Timberlake, (0, -400), Elijah Wood, (-550, -100), Ben Stiller, (-300, 300), Brad Pitt, (300, 300), Ryan Reynolds, [440. -94.], 1, 1.3444912999984808
sub-11, trial31, 09, Justin Timberlake, ID09_IM03.bmp, (300, 300), George Clooney, (-550, -100), Robert Downey Jr, (550, -100), Hugh Jackman, (-300, 300), Ryan Gosling, (0, -400), Ryan Gosling, [-110. -410.], 0, 2.3923430999857374
sub-11, trial21, 16, Robert Pattinson, ID16_IM01.bmp, (300, 300), Brad Pitt, (550, -100), Hugh Jackman, (0, -400), Patrick Dempsey, (-300, 300), Ryan Reynolds, (-550, -100), Robert Pattinson, [199. 295.], 1, 1.9738504000124522
sub-11, trial65, 10, Keanu Reeves, ID10_IM04.bmp, (300, 300), Patrick Dempsey, (0, -400), Brad Pitt, (-550, -100), George Clooney, (550, -100), Justin Timberlake, (-300, 300), familiar face, [  -2. -122.], 1, 2.365830799972173
sub-11, trial33, 05, Daniel Radcliffe, ID05_IM02.bmp, (550, -100), Ryan Reynolds, (-550, -100), Ryan Gosling, (-300, 300), Ben Stiller, (0, -400), Leonardo DiCaprio, (300, 300), Daniel Radcliffe, [401. -76.], 1, 1.436053899989929
sub-11, trial11, 15, Robert Downey Jr, ID15_IM04.bmp, (-300, 300), George Clooney, (550, -100), Daniel Radcliffe, (300, 300), Matt Damon, (0, -400), Elijah Wood, (-550, -100), Robert Downey Jr, [-163.  270.], 1, 0.8734950000070967
sub-11, trial43, 05, Daniel Radcliffe, ID05_IM04.bmp, (-300, 300), Robert Downey Jr, (300, 300), Brad Pitt, (550, -100), Patrick Dempsey, (-550, -100), Hugh Jackman, (0, -400), Daniel Radcliffe, [-187.  304.], 1, 2.011523299966939
sub-11, trial44, 04, Daniel Craig, ID04_IM03.bmp, (0, -400), Robert Pattinson, (300, 300), Ryan Reynolds, (-300, 300), Orlando Bloom, (550, -100), Ryan Gosling, (-550, -100), Daniel Craig, [  90. -444.], 1, 1.9132577000418678
sub-11, trial24, 02, Ben Stiller, ID02_IM04.bmp, (-300, 300), Orlando Bloom, (550, -100), Keanu Reeves, (300, 300), Patrick Dempsey, (0, -400), Matt Damon, (-550, -100), Ben Stiller, [-222.  275.], 1, 0.9942251999746077
sub-11, trial18, 07, George Clooney, ID07_IM03.bmp, (-300, 300), Matt Damon, (300, 300), Patrick Dempsey, (0, -400), Brad Pitt, (550, -100), Keanu Reeves, (-550, -100), George Clooney, [-182.  280.], 1, 2.6882783999899402
sub-11, trial41, 17, Ryan Gosling, ID17_IM04.bmp, (0, -400), Ben Affleck, (-550, -100), Robert Pattinson, (550, -100), Daniel Radcliffe, (300, 300), Justin Timberlake, (-300, 300), Ryan Gosling, [  25. -371.], 1, 2.578970299975481
