subject,trial,celeb_id,celeb_name,celeb_image,celeb_position,rand0_name,rand0_pos,rand1_name,rand1_pos,rand2_name,rand2_pos,rand3_name,rand3_pos,answer_celeb,answer_position,correct,rt
sub-04, trial15, 18, Ryan Reynolds, ID18_IM02.bmp, (-550, -100), Elijah Wood, (550, -100), Matt Damon, (-300, 300), Orlando Bloom, (300, 300), Patrick Dempsey, (0, -400), familiar face, [  54. -103.], 1, 6.2926596000324935
sub-04, trial36, 07, George Clooney, ID07_IM02.bmp, (-550, -100), Matt Damon, (550, -100), Robert Downey Jr, (-300, 300), Keanu Reeves, (300, 300), Ryan Reynolds, (0, -400), George Clooney, [-424. -101.], 1, 2.252164099831134
sub-04, trial11, 15, Robert Downey Jr, ID15_IM03.bmp, (550, -100), Elijah Wood, (300, 300), Justin Timberlake, (-300, 300), George Clooney, (0, -400), Ben Stiller, (-550, -100), familiar face, [-116. -112.], 1, 5.9033963000401855
sub-04, trial45, 02, Ben Stiller, ID02_IM03.bmp, (300, 300), Justin Timberlake, (-300, 300), Leonardo DiCaprio, (0, -400), Orlando Bloom, (550, -100), Keanu Reeves, (-550, -100), Orlando Bloom, [ 465. -103.], 0, 4.681228699861094
sub-04, trial59, 09, Justin Timberlake, ID09_IM03.bmp, (-550, -100), Leonardo DiCaprio, (-300, 300), Patrick Dempsey, (0, -400), Ben Affleck, (550, -100), Ben Stiller, (300, 300), Justin Timberlake, [-424. -113.], 1, 2.124593799933791
sub-04, trial57, 12, Matt Damon, ID12_IM01.bmp, (550, -100), Ben Stiller, (0, -400), Robert Downey Jr, (-300, 300), Robert Pattinson, (300, 300), Hugh Jackman, (-550, -100), Matt Damon, [ 494. -103.], 1, 4.6537500999402255
sub-04, trial41, 11, Leonardo DiCaprio, ID11_IM02.bmp, (-550, -100), Justin Timberlake, (550, -100), Brad Pitt, (0, -400), Ryan Gosling, (300, 300), George Clooney, (-300, 300), Leonardo DiCaprio, [-489. -105.], 1, 1.9524256000295281
sub-04, trial4, 06, Elijah Wood, ID06_IM04.bmp, (0, -400), Matt Damon, (-550, -100), Patrick Dempsey, (300, 300), Ben Affleck, (-300, 300), Daniel Radcliffe, (550, -100), idk, [32. 73.], 0, 2.6961095998995006
sub-04, trial34, 13, Orlando Bloom, ID13_IM04.bmp, (-550, -100), George Clooney, (0, -400), Brad Pitt, (-300, 300), Daniel Craig, (300, 300), Patrick Dempsey, (550, -100), idk, [38. 66.], 0, 1.531203499995172
sub-04, trial24, 03, Brad Pitt, ID03_IM02.bmp, (550, -100), Elijah Wood, (0, -400), Hugh Jackman, (300, 300), Patrick Dempsey, (-300, 300), Robert Pattinson, (-550, -100), Brad Pitt, [ 414. -122.], 1, 2.4753001001663506
sub-04, trial39, 11, Leonardo DiCaprio, ID11_IM01.bmp, (550, -100), Elijah Wood, (-550, -100), Brad Pitt, (300, 300), Hugh Jackman, (0, -400), Orlando Bloom, (-300, 300), Leonardo DiCaprio, [ 504. -114.], 1, 2.327143399976194
sub-04, trial43, 01, Ben Affleck, ID01_IM02.bmp, (300, 300), Robert Pattinson, (-300, 300), Keanu Reeves, (0, -400), Daniel Radcliffe, (550, -100), Orlando Bloom, (-550, -100), Orlando Bloom, [-490. -103.], 0, 3.5187136998865753
sub-04, trial40, 09, Justin Timberlake, ID09_IM04.bmp, (300, 300), George Clooney, (-550, -100), Daniel Radcliffe, (0, -400), Hugh Jackman, (-300, 300), Elijah Wood, (550, -100), Justin Timberlake, [250. 315.], 1, 1.959212299901992
sub-04, trial20, 04, Daniel Craig, ID04_IM02.bmp, (0, -400), Ben Stiller, (550, -100), Justin Timberlake, (-550, -100), Patrick Dempsey, (-300, 300), George Clooney, (300, 300), familiar face, [ -13. -125.], 1, 3.2073221998289227
sub-04, trial53, 17, Ryan Gosling, ID17_IM02.bmp, (300, 300), Ben Affleck, (0, -400), Justin Timberlake, (-550, -100), Keanu Reeves, (550, -100), Daniel Radcliffe, (-300, 300), idk, [18. 74.], 0, 1.748106800019741
sub-04, trial1, 11, Leonardo DiCaprio, ID11_IM03.bmp, (0, -400), Ryan Reynolds, (-300, 300), Justin Timberlake, (-550, -100), Ben Stiller, (550, -100), Patrick Dempsey, (300, 300), Leonardo DiCaprio, [  34. -424.], 1, 1.7642911998555064
sub-04, trial13, 01, Ben Affleck, ID01_IM04.bmp, (0, -400), Brad Pitt, (300, 300), Robert Pattinson, (-550, -100), Keanu Reeves, (-300, 300), Patrick Dempsey, (550, -100), idk, [44. 83.], 0, 1.1078272999729961
sub-04, trial58, 08, Hugh Jackman, ID08_IM01.bmp, (550, -100), Ben Stiller, (-550, -100), Brad Pitt, (-300, 300), Leonardo DiCaprio, (0, -400), Elijah Wood, (300, 300), idk, [45. 79.], 0, 1.1811001999303699
sub-04, trial33, 04, Daniel Craig, ID04_IM04.bmp, (550, -100), Justin Timberlake, (0, -400), Ben Affleck, (-300, 300), Robert Downey Jr, (300, 300), Orlando Bloom, (-550, -100), Robert Downey Jr, [212. 302.], 0, 4.972677400102839
sub-04, trial10, 07, George Clooney, ID07_IM03.bmp, (0, -400), Brad Pitt, (550, -100), Justin Timberlake, (-300, 300), Elijah Wood, (-550, -100), Ryan Reynolds, (300, 300), George Clooney, [  20. -414.], 1, 2.6025251001119614
sub-04, trial71, 14, Patrick Dempsey, ID14_IM03.bmp, (0, -400), Ben Affleck, (550, -100), Ryan Reynolds, (-550, -100), Ben Stiller, (-300, 300), Leonardo DiCaprio, (300, 300), idk, [20. 70.], 0, 1.4322587000206113
sub-04, trial46, 02, Ben Stiller, ID02_IM01.bmp, (550, -100), Ryan Gosling, (300, 300), Robert Downey Jr, (-550, -100), Daniel Craig, (-300, 300), Patrick Dempsey, (0, -400), idk, [21. 67.], 0, 1.6046571999322623
sub-04, trial68, 09, Justin Timberlake, ID09_IM02.bmp, (550, -100), Daniel Radcliffe, (300, 300), Robert Pattinson, (-300, 300), Hugh Jackman, (0, -400), Leonardo DiCaprio, (-550, -100), Justin Timberlake, [493. -88.], 1, 3.8831472999881953
sub-04, trial9, 08, Hugh Jackman, ID08_IM02.bmp, (-550, -100), Ben Stiller, (0, -400), Matt Damon, (-300, 300), Justin Timberlake, (300, 300), Elijah Wood, (550, -100), idk, [127.  65.], 0, 0.6764716999605298
sub-04, trial29, 17, Ryan Gosling, ID17_IM04.bmp, (0, -400), Robert Downey Jr, (300, 300), Ben Stiller, (550, -100), Robert Pattinson, (-550, -100), Patrick Dempsey, (-300, 300), idk, [127.  65.], 0, 0.5021750999148935
sub-04, trial17, 04, Daniel Craig, ID04_IM01.bmp, (0, -400), Orlando Bloom, (-550, -100), Brad Pitt, (550, -100), Matt Damon, (-300, 300), Ryan Reynolds, (300, 300), Ryan Reynolds, [348. 293.], 0, 4.409405400045216
sub-04, trial52, 18, Ryan Reynolds, ID18_IM03.bmp, (-550, -100), Leonardo DiCaprio, (0, -400), Ben Stiller, (550, -100), Keanu Reeves, (-300, 300), Brad Pitt, (300, 300), familiar face, [  27. -114.], 1, 1.6304341000504792
sub-04, trial70, 07, George Clooney, ID07_IM01.bmp, (300, 300), Orlando Bloom, (-550, -100), Hugh Jackman, (0, -400), Ryan Gosling, (550, -100), Ben Affleck, (-300, 300), George Clooney, [326. 332.], 1, 0.9636354001704603
sub-04, trial49, 03, Brad Pitt, ID03_IM03.bmp, (-550, -100), Hugh Jackman, (-300, 300), George Clooney, (300, 300), Ryan Reynolds, (0, -400), Ryan Gosling, (550, -100), familiar face, [ 86. -91.], 1, 5.092094200197607
sub-04, trial18, 15, Robert Downey Jr, ID15_IM04.bmp, (550, -100), Leonardo DiCaprio, (300, 300), Ben Affleck, (-300, 300), Ryan Reynolds, (-550, -100), Robert Pattinson, (0, -400), idk, [92. 31.], 0, 3.5411141000222415
sub-04, trial63, 10, Keanu Reeves, ID10_IM04.bmp, (0, -400), Ryan Gosling, (-550, -100), Patrick Dempsey, (300, 300), Elijah Wood, (-300, 300), George Clooney, (550, -100), idk, [92. 31.], 0, 0.5635566997807473
sub-04, trial14, 05, Daniel Radcliffe, ID05_IM03.bmp, (-550, -100), Leonardo DiCaprio, (300, 300), Keanu Reeves, (-300, 300), Brad Pitt, (0, -400), Hugh Jackman, (550, -100), Daniel Radcliffe, [-502.  -92.], 1, 4.452547199791297
sub-04, trial32, 06, Elijah Wood, ID06_IM02.bmp, (550, -100), Ryan Gosling, (-550, -100), Justin Timberlake, (0, -400), Brad Pitt, (300, 300), Ben Affleck, (-300, 300), idk, [-41.  38.], 0, 1.3519870000891387
sub-04, trial65, 03, Brad Pitt, ID03_IM01.bmp, (550, -100), Daniel Radcliffe, (-550, -100), Ryan Gosling, (0, -400), Robert Downey Jr, (300, 300), Orlando Bloom, (-300, 300), Brad Pitt, [483. -98.], 1, 2.703540900023654
sub-04, trial44, 10, Keanu Reeves, ID10_IM03.bmp, (-550, -100), Elijah Wood, (300, 300), Ryan Reynolds, (-300, 300), Leonardo DiCaprio, (550, -100), Daniel Radcliffe, (0, -400), idk, [126.  40.], 0, 0.6103497999720275
sub-04, trial56, 16, Robert Pattinson, ID16_IM03.bmp, (550, -100), Ben Affleck, (0, -400), Elijah Wood, (-550, -100), Orlando Bloom, (300, 300), Keanu Reeves, (-300, 300), Robert Pattinson, [ 434. -127.], 1, 2.9187680000904948
sub-04, trial2, 12, Matt Damon, ID12_IM04.bmp, (-550, -100), Daniel Craig, (300, 300), Keanu Reeves, (550, -100), Justin Timberlake, (0, -400), Ben Stiller, (-300, 300), idk, [12. 71.], 0, 0.7208373001776636
sub-04, trial69, 08, Hugh Jackman, ID08_IM03.bmp, (0, -400), Elijah Wood, (-550, -100), Matt Damon, (550, -100), Robert Pattinson, (-300, 300), Daniel Craig, (300, 300), idk, [12. 71.], 0, 0.575573000125587
sub-04, trial30, 05, Daniel Radcliffe, ID05_IM04.bmp, (0, -400), Brad Pitt, (550, -100), Keanu Reeves, (300, 300), Ryan Reynolds, (-550, -100), Ryan Gosling, (-300, 300), familiar face, [ 89. -97.], 1, 9.375913799973205
sub-04, trial67, 01, Ben Affleck, ID01_IM01.bmp, (300, 300), Robert Downey Jr, (-300, 300), Leonardo DiCaprio, (0, -400), Patrick Dempsey, (550, -100), Justin Timberlake, (-550, -100), idk, [45. 41.], 0, 0.8385648999828845
sub-04, trial42, 10, Keanu Reeves, ID10_IM02.bmp, (300, 300), Ben Stiller, (-300, 300), Daniel Craig, (-550, -100), Robert Downey Jr, (550, -100), Brad Pitt, (0, -400), idk, [45. 41.], 0, 0.5615552000235766
sub-04, trial8, 05, Daniel Radcliffe, ID05_IM02.bmp, (-300, 300), Elijah Wood, (-550, -100), Justin Timberlake, (550, -100), Matt Damon, (0, -400), Hugh Jackman, (300, 300), Daniel Radcliffe, [-290.  295.], 1, 3.3385647998657078
sub-04, trial61, 05, Daniel Radcliffe, ID05_IM01.bmp, (300, 300), Keanu Reeves, (-300, 300), Patrick Dempsey, (-550, -100), Leonardo DiCaprio, (0, -400), Robert Pattinson, (550, -100), Daniel Radcliffe, [239. 304.], 1, 3.546658599982038
sub-04, trial26, 12, Matt Damon, ID12_IM02.bmp, (550, -100), Robert Downey Jr, (0, -400), Ben Stiller, (-300, 300), Elijah Wood, (-550, -100), Justin Timberlake, (300, 300), idk, [52. 46.], 0, 1.4911261999513954
sub-04, trial21, 14, Patrick Dempsey, ID14_IM02.bmp, (300, 300), Robert Downey Jr, (-300, 300), Ben Stiller, (550, -100), Ryan Gosling, (-550, -100), Ryan Reynolds, (0, -400), idk, [52. 46.], 0, 1.0760333999060094
sub-04, trial16, 12, Matt Damon, ID12_IM03.bmp, (550, -100), Patrick Dempsey, (0, -400), Ryan Gosling, (-300, 300), George Clooney, (300, 300), Hugh Jackman, (-550, -100), idk, [52. 46.], 0, 0.7029150000307709
sub-04, trial72, 10, Keanu Reeves, ID10_IM01.bmp, (0, -400), Daniel Craig, (300, 300), Orlando Bloom, (550, -100), Elijah Wood, (-300, 300), Patrick Dempsey, (-550, -100), idk, [52. 46.], 0, 0.28093560016714036
sub-04, trial54, 16, Robert Pattinson, ID16_IM02.bmp, (550, -100), Elijah Wood, (-300, 300), Ryan Reynolds, (-550, -100), Daniel Radcliffe, (0, -400), Brad Pitt, (300, 300), Robert Pattinson, [424. -84.], 1, 1.4293171998579055
sub-04, trial35, 16, Robert Pattinson, ID16_IM04.bmp, (300, 300), Orlando Bloom, (0, -400), Matt Damon, (-550, -100), Ryan Gosling, (-300, 300), Elijah Wood, (550, -100), Robert Pattinson, [303. 275.], 1, 2.218024699948728
sub-04, trial25, 13, Orlando Bloom, ID13_IM01.bmp, (550, -100), Robert Pattinson, (-300, 300), Hugh Jackman, (0, -400), Daniel Craig, (-550, -100), Brad Pitt, (300, 300), idk, [101.  79.], 0, 0.8310358000453562
sub-04, trial31, 06, Elijah Wood, ID06_IM03.bmp, (-300, 300), Matt Damon, (550, -100), Leonardo DiCaprio, (-550, -100), Hugh Jackman, (300, 300), Keanu Reeves, (0, -400), idk, [101.  79.], 0, 0.48221269994974136
sub-04, trial55, 14, Patrick Dempsey, ID14_IM01.bmp, (0, -400), Hugh Jackman, (300, 300), Keanu Reeves, (-300, 300), Elijah Wood, (550, -100), Daniel Radcliffe, (-550, -100), Patrick Dempsey, [  51. -380.], 1, 4.006620700005442
sub-04, trial50, 11, Leonardo DiCaprio, ID11_IM04.bmp, (300, 300), George Clooney, (550, -100), Patrick Dempsey, (-550, -100), Elijah Wood, (-300, 300), Brad Pitt, (0, -400), Leonardo DiCaprio, [247. 330.], 1, 2.1312557000201195
sub-04, trial19, 17, Ryan Gosling, ID17_IM03.bmp, (-300, 300), Brad Pitt, (300, 300), Ben Affleck, (-550, -100), George Clooney, (550, -100), Justin Timberlake, (0, -400), Ryan Gosling, [-234.  272.], 1, 1.5159269000869244
sub-04, trial64, 15, Robert Downey Jr, ID15_IM02.bmp, (300, 300), Leonardo DiCaprio, (550, -100), Daniel Radcliffe, (0, -400), Daniel Craig, (-300, 300), Hugh Jackman, (-550, -100), familiar face, [-15. -91.], 1, 4.9737472999840975
sub-04, trial51, 07, George Clooney, ID07_IM04.bmp, (-550, -100), Justin Timberlake, (0, -400), Daniel Craig, (550, -100), Orlando Bloom, (-300, 300), Patrick Dempsey, (300, 300), Patrick Dempsey, [275. 275.], 0, 5.491371599957347
sub-04, trial48, 03, Brad Pitt, ID03_IM04.bmp, (-550, -100), Daniel Radcliffe, (0, -400), Orlando Bloom, (300, 300), Keanu Reeves, (-300, 300), Ryan Gosling, (550, -100), idk, [73. 57.], 0, 1.4427465999033302
sub-04, trial27, 13, Orlando Bloom, ID13_IM02.bmp, (-550, -100), Ryan Reynolds, (0, -400), Matt Damon, (-300, 300), Robert Downey Jr, (550, -100), Patrick Dempsey, (300, 300), idk, [73. 57.], 0, 0.4916465000715107
sub-04, trial28, 15, Robert Downey Jr, ID15_IM01.bmp, (300, 300), Leonardo DiCaprio, (-550, -100), Keanu Reeves, (550, -100), Justin Timberlake, (-300, 300), Orlando Bloom, (0, -400), idk, [38. 48.], 0, 1.8522739000618458
sub-04, trial37, 13, Orlando Bloom, ID13_IM03.bmp, (-300, 300), George Clooney, (-550, -100), Brad Pitt, (300, 300), Justin Timberlake, (550, -100), Hugh Jackman, (0, -400), idk, [38. 48.], 0, 0.27023219992406666
sub-04, trial7, 01, Ben Affleck, ID01_IM03.bmp, (550, -100), Keanu Reeves, (-550, -100), Ryan Gosling, (300, 300), Ben Stiller, (-300, 300), Justin Timberlake, (0, -400), idk, [38. 48.], 0, 0.3695700999815017
sub-04, trial62, 17, Ryan Gosling, ID17_IM01.bmp, (300, 300), Daniel Craig, (0, -400), Robert Downey Jr, (550, -100), Ryan Reynolds, (-300, 300), Brad Pitt, (-550, -100), Ryan Gosling, [240. 283.], 1, 1.5779028001707047
sub-04, trial6, 18, Ryan Reynolds, ID18_IM04.bmp, (-550, -100), Justin Timberlake, (300, 300), Hugh Jackman, (550, -100), Matt Damon, (-300, 300), Ryan Gosling, (0, -400), idk, [139. 109.], 0, 0.6883225999772549
sub-04, trial23, 08, Hugh Jackman, ID08_IM04.bmp, (550, -100), Ryan Gosling, (0, -400), Orlando Bloom, (300, 300), Patrick Dempsey, (-550, -100), Daniel Radcliffe, (-300, 300), idk, [136. 102.], 0, 0.6105942002031952
sub-04, trial47, 02, Ben Stiller, ID02_IM02.bmp, (0, -400), Orlando Bloom, (550, -100), Daniel Radcliffe, (300, 300), Matt Damon, (-550, -100), Hugh Jackman, (-300, 300), idk, [136. 102.], 0, 0.4389674998819828
sub-04, trial66, 16, Robert Pattinson, ID16_IM01.bmp, (0, -400), Ben Affleck, (550, -100), Ryan Gosling, (-300, 300), Ryan Reynolds, (300, 300), Brad Pitt, (-550, -100), Robert Pattinson, [  69. -351.], 1, 2.1787185999564826
sub-04, trial5, 04, Daniel Craig, ID04_IM03.bmp, (-300, 300), Hugh Jackman, (-550, -100), Robert Pattinson, (0, -400), George Clooney, (550, -100), Matt Damon, (300, 300), Daniel Craig, [-178.  304.], 1, 4.443550999974832
sub-04, trial12, 18, Ryan Reynolds, ID18_IM01.bmp, (300, 300), Justin Timberlake, (0, -400), Daniel Radcliffe, (-300, 300), Matt Damon, (550, -100), Hugh Jackman, (-550, -100), Ryan Reynolds, [300. 310.], 1, 1.4310393000487238
sub-04, trial3, 14, Patrick Dempsey, ID14_IM04.bmp, (-300, 300), Robert Downey Jr, (550, -100), Brad Pitt, (300, 300), Ryan Gosling, (-550, -100), George Clooney, (0, -400), Patrick Dempsey, [-252.  276.], 1, 2.829414000036195
sub-04, trial22, 06, Elijah Wood, ID06_IM01.bmp, (550, -100), Ben Affleck, (0, -400), Keanu Reeves, (-300, 300), Brad Pitt, (300, 300), Orlando Bloom, (-550, -100), idk, [30. 69.], 0, 0.6973894000984728
sub-04, trial38, 09, Justin Timberlake, ID09_IM01.bmp, (550, -100), Matt Damon, (0, -400), Ben Stiller, (-550, -100), George Clooney, (300, 300), Patrick Dempsey, (-300, 300), Justin Timberlake, [444. -98.], 1, 1.1645475998520851
sub-04, trial60, 02, Ben Stiller, ID02_IM04.bmp, (300, 300), Keanu Reeves, (-550, -100), Elijah Wood, (-300, 300), Leonardo DiCaprio, (0, -400), Ryan Reynolds, (550, -100), idk, [68. 67.], 0, 1.1786015999969095
subject,trial,celeb_id,celeb_name,celeb_image,celeb_position,rand0_name,rand0_pos,rand1_name,rand1_pos,rand2_name,rand2_pos,rand3_name,rand3_pos,answer_celeb,answer_position,correct,rt
sub-04, trial57, 07, George Clooney, ID07_IM03.bmp, (0, -400), Leonardo DiCaprio, (300, 300), Ryan Reynolds, (550, -100), Ryan Gosling, (-550, -100), Robert Downey Jr, (-300, 300), George Clooney, [  62. -389.], 1, 2.6363794999197125
sub-04, trial22, 13, Orlando Bloom, ID13_IM01.bmp, (-300, 300), Ryan Reynolds, (-550, -100), Ryan Gosling, (550, -100), Robert Downey Jr, (300, 300), Robert Pattinson, (0, -400), idk, [41. 53.], 0, 1.9373659999109805
sub-04, trial31, 10, Keanu Reeves, ID10_IM01.bmp, (0, -400), Ben Stiller, (300, 300), George Clooney, (550, -100), Hugh Jackman, (-550, -100), Brad Pitt, (-300, 300), familiar face, [ 119. -109.], 1, 2.5788497999310493
sub-04, trial42, 06, Elijah Wood, ID06_IM01.bmp, (300, 300), Ryan Reynolds, (-550, -100), Daniel Craig, (0, -400), Daniel Radcliffe, (550, -100), George Clooney, (-300, 300), familiar face, [ 122. -111.], 1, 0.7771695000119507
sub-04, trial33, 05, Daniel Radcliffe, ID05_IM01.bmp, (-550, -100), Elijah Wood, (-300, 300), Orlando Bloom, (300, 300), George Clooney, (0, -400), Matt Damon, (550, -100), Daniel Radcliffe, [-459. -102.], 1, 2.8950756997801363
sub-04, trial45, 15, Robert Downey Jr, ID15_IM03.bmp, (0, -400), Ben Affleck, (-300, 300), Keanu Reeves, (-550, -100), Matt Damon, (300, 300), Elijah Wood, (550, -100), familiar face, [ -44. -124.], 1, 4.026864800136536
sub-04, trial35, 06, Elijah Wood, ID06_IM04.bmp, (550, -100), Daniel Radcliffe, (300, 300), Matt Damon, (-300, 300), Patrick Dempsey, (0, -400), Hugh Jackman, (-550, -100), familiar face, [ -77. -129.], 1, 2.342517300043255
sub-04, trial54, 02, Ben Stiller, ID02_IM01.bmp, (-300, 300), Orlando Bloom, (300, 300), Elijah Wood, (550, -100), Ryan Gosling, (-550, -100), Hugh Jackman, (0, -400), familiar face, [ -93. -105.], 1, 2.5114723001606762
sub-04, trial72, 14, Patrick Dempsey, ID14_IM03.bmp, (300, 300), Ben Affleck, (550, -100), Orlando Bloom, (-300, 300), Matt Damon, (0, -400), Ben Stiller, (-550, -100), idk, [-40.  66.], 0, 1.5130806001834571
sub-04, trial6, 13, Orlando Bloom, ID13_IM02.bmp, (-550, -100), George Clooney, (0, -400), Ryan Gosling, (300, 300), Patrick Dempsey, (550, -100), Ryan Reynolds, (-300, 300), idk, [-68.  34.], 0, 1.4974690000526607
sub-04, trial40, 14, Patrick Dempsey, ID14_IM02.bmp, (0, -400), Ben Affleck, (300, 300), Hugh Jackman, (550, -100), Orlando Bloom, (-550, -100), Ben Stiller, (-300, 300), familiar face, [-145. -103.], 1, 1.6118549001403153
sub-04, trial9, 12, Matt Damon, ID12_IM02.bmp, (550, -100), Keanu Reeves, (0, -400), Elijah Wood, (-300, 300), Patrick Dempsey, (300, 300), Robert Pattinson, (-550, -100), Matt Damon, [457. -65.], 1, 1.7052275000605732
sub-04, trial70, 01, Ben Affleck, ID01_IM03.bmp, (300, 300), Justin Timberlake, (-300, 300), Daniel Radcliffe, (-550, -100), Brad Pitt, (550, -100), George Clooney, (0, -400), familiar face, [ 111. -113.], 1, 1.3716702000238001
sub-04, trial30, 11, Leonardo DiCaprio, ID11_IM04.bmp, (550, -100), Ben Stiller, (300, 300), Elijah Wood, (-550, -100), Ben Affleck, (-300, 300), Brad Pitt, (0, -400), Leonardo DiCaprio, [ 545. -136.], 1, 2.250224099960178
sub-04, trial26, 09, Justin Timberlake, ID09_IM04.bmp, (300, 300), Patrick Dempsey, (0, -400), George Clooney, (-300, 300), Leonardo DiCaprio, (-550, -100), Hugh Jackman, (550, -100), Justin Timberlake, [309. 298.], 1, 1.5353059000335634
sub-04, trial69, 01, Ben Affleck, ID01_IM04.bmp, (0, -400), Daniel Radcliffe, (-550, -100), Brad Pitt, (550, -100), Ryan Gosling, (-300, 300), Daniel Craig, (300, 300), Ryan Gosling, [-252.  318.], 0, 1.798941999906674
sub-04, trial25, 14, Patrick Dempsey, ID14_IM01.bmp, (-300, 300), Hugh Jackman, (300, 300), Robert Pattinson, (-550, -100), Keanu Reeves, (550, -100), Elijah Wood, (0, -400), familiar face, [ 26. -91.], 1, 2.00582420011051
sub-04, trial21, 14, Patrick Dempsey, ID14_IM04.bmp, (-300, 300), Daniel Craig, (-550, -100), Justin Timberlake, (0, -400), Robert Downey Jr, (550, -100), Ryan Gosling, (300, 300), familiar face, [ 27. -91.], 1, 0.6344949000049382
sub-04, trial12, 10, Keanu Reeves, ID10_IM04.bmp, (0, -400), Justin Timberlake, (550, -100), Daniel Radcliffe, (-550, -100), Robert Pattinson, (300, 300), George Clooney, (-300, 300), Keanu Reeves, [  77. -404.], 1, 3.494777499930933
sub-04, trial41, 03, Brad Pitt, ID03_IM04.bmp, (-300, 300), Keanu Reeves, (550, -100), Ben Affleck, (0, -400), Robert Pattinson, (-550, -100), Patrick Dempsey, (300, 300), Brad Pitt, [-216.  332.], 1, 4.040884600020945
sub-04, trial62, 04, Daniel Craig, ID04_IM01.bmp, (-300, 300), Robert Pattinson, (550, -100), Keanu Reeves, (0, -400), Ben Affleck, (300, 300), Elijah Wood, (-550, -100), familiar face, [ -86. -101.], 1, 12.509144200012088
sub-04, trial67, 02, Ben Stiller, ID02_IM02.bmp, (-550, -100), Ryan Gosling, (300, 300), Daniel Craig, (-300, 300), Ryan Reynolds, (550, -100), Orlando Bloom, (0, -400), idk, [-20.  19.], 0, 3.222586299991235
sub-04, trial43, 03, Brad Pitt, ID03_IM02.bmp, (0, -400), Elijah Wood, (-300, 300), Daniel Radcliffe, (300, 300), Robert Pattinson, (-550, -100), Daniel Craig, (550, -100), Brad Pitt, [  50. -412.], 1, 3.7471094001084566
sub-04, trial46, 17, Ryan Gosling, ID17_IM03.bmp, (0, -400), Elijah Wood, (-550, -100), Robert Pattinson, (-300, 300), Ben Stiller, (550, -100), Daniel Radcliffe, (300, 300), Ryan Gosling, [  24. -397.], 1, 2.275320300133899
sub-04, trial17, 04, Daniel Craig, ID04_IM03.bmp, (-550, -100), George Clooney, (0, -400), Ryan Reynolds, (300, 300), Elijah Wood, (550, -100), Ryan Gosling, (-300, 300), Daniel Craig, [-496.  -92.], 1, 8.10196949983947
sub-04, trial37, 04, Daniel Craig, ID04_IM04.bmp, (-300, 300), Ben Stiller, (-550, -100), Daniel Radcliffe, (550, -100), Justin Timberlake, (300, 300), Robert Pattinson, (0, -400), Daniel Radcliffe, [453. -93.], 0, 1.1132128001190722
sub-04, trial15, 06, Elijah Wood, ID06_IM02.bmp, (550, -100), Justin Timberlake, (0, -400), Hugh Jackman, (-300, 300), Leonardo DiCaprio, (300, 300), Ryan Gosling, (-550, -100), idk, [101.  44.], 0, 2.3300598999485373
sub-04, trial1, 07, George Clooney, ID07_IM01.bmp, (550, -100), Leonardo DiCaprio, (0, -400), Daniel Radcliffe, (-300, 300), Brad Pitt, (-550, -100), Elijah Wood, (300, 300), George Clooney, [ 492. -110.], 1, 2.4261458998080343
sub-04, trial24, 07, George Clooney, ID07_IM02.bmp, (-300, 300), Ben Stiller, (0, -400), Daniel Radcliffe, (550, -100), Ben Affleck, (300, 300), Brad Pitt, (-550, -100), George Clooney, [-257.  305.], 1, 1.9675086999777704
sub-04, trial20, 16, Robert Pattinson, ID16_IM04.bmp, (550, -100), Keanu Reeves, (-550, -100), Leonardo DiCaprio, (0, -400), Elijah Wood, (-300, 300), Brad Pitt, (300, 300), familiar face, [-10. -82.], 1, 6.013581199804321
sub-04, trial63, 18, Ryan Reynolds, ID18_IM02.bmp, (0, -400), Ben Stiller, (-300, 300), Ben Affleck, (550, -100), Elijah Wood, (-550, -100), Leonardo DiCaprio, (300, 300), familiar face, [ 56. -91.], 1, 4.2509976997971535
sub-04, trial59, 11, Leonardo DiCaprio, ID11_IM02.bmp, (-550, -100), Ryan Gosling, (550, -100), Justin Timberlake, (-300, 300), Elijah Wood, (300, 300), Daniel Radcliffe, (0, -400), Leonardo DiCaprio, [-466. -105.], 1, 2.3258144001010805
sub-04, trial18, 09, Justin Timberlake, ID09_IM03.bmp, (550, -100), Elijah Wood, (300, 300), Robert Downey Jr, (-300, 300), Daniel Craig, (-550, -100), Matt Damon, (0, -400), Justin Timberlake, [501. -75.], 1, 1.8155941998120397
sub-04, trial50, 16, Robert Pattinson, ID16_IM03.bmp, (-550, -100), Orlando Bloom, (-300, 300), Leonardo DiCaprio, (300, 300), Ben Stiller, (0, -400), Patrick Dempsey, (550, -100), Robert Pattinson, [-508. -125.], 1, 2.860638199839741
sub-04, trial56, 09, Justin Timberlake, ID09_IM02.bmp, (550, -100), Patrick Dempsey, (0, -400), Daniel Craig, (300, 300), Ben Affleck, (-550, -100), Leonardo DiCaprio, (-300, 300), Justin Timberlake, [ 621. -104.], 1, 1.3838235000148416
sub-04, trial55, 11, Leonardo DiCaprio, ID11_IM03.bmp, (300, 300), Keanu Reeves, (-300, 300), Robert Downey Jr, (550, -100), Ben Stiller, (-550, -100), Robert Pattinson, (0, -400), Leonardo DiCaprio, [322. 287.], 1, 2.646284299902618
sub-04, trial68, 05, Daniel Radcliffe, ID05_IM03.bmp, (-300, 300), Ryan Reynolds, (0, -400), Keanu Reeves, (-550, -100), Patrick Dempsey, (300, 300), Brad Pitt, (550, -100), Daniel Radcliffe, [-263.  307.], 1, 1.7067241999320686
sub-04, trial23, 08, Hugh Jackman, ID08_IM03.bmp, (550, -100), George Clooney, (300, 300), Ryan Reynolds, (-550, -100), Daniel Radcliffe, (0, -400), Robert Downey Jr, (-300, 300), Hugh Jackman, [ 460. -124.], 1, 4.7879725999664515
sub-04, trial71, 01, Ben Affleck, ID01_IM01.bmp, (0, -400), Leonardo DiCaprio, (300, 300), Justin Timberlake, (-300, 300), George Clooney, (-550, -100), Ben Stiller, (550, -100), familiar face, [  -9. -111.], 1, 2.0665940998587757
sub-04, trial39, 17, Ryan Gosling, ID17_IM02.bmp, (300, 300), Robert Pattinson, (0, -400), Daniel Craig, (-550, -100), Ryan Reynolds, (-300, 300), Justin Timberlake, (550, -100), familiar face, [  -9. -111.], 1, 3.988213900011033
sub-04, trial38, 10, Keanu Reeves, ID10_IM02.bmp, (550, -100), Brad Pitt, (0, -400), Hugh Jackman, (300, 300), Orlando Bloom, (-300, 300), Daniel Radcliffe, (-550, -100), idk, [22. 49.], 0, 1.0995861999690533
sub-04, trial13, 13, Orlando Bloom, ID13_IM03.bmp, (550, -100), Daniel Craig, (300, 300), Brad Pitt, (-550, -100), Robert Pattinson, (0, -400), Matt Damon, (-300, 300), idk, [21. 48.], 0, 0.813960799947381
sub-04, trial65, 18, Ryan Reynolds, ID18_IM01.bmp, (0, -400), Daniel Radcliffe, (-300, 300), Hugh Jackman, (550, -100), Leonardo DiCaprio, (300, 300), Ryan Gosling, (-550, -100), Ryan Reynolds, [  73. -364.], 1, 4.891520099947229
sub-04, trial3, 15, Robert Downey Jr, ID15_IM01.bmp, (-550, -100), Matt Damon, (550, -100), Orlando Bloom, (0, -400), Keanu Reeves, (-300, 300), Justin Timberlake, (300, 300), Robert Downey Jr, [-452. -102.], 1, 3.7493504001758993
sub-04, trial64, 04, Daniel Craig, ID04_IM02.bmp, (300, 300), Keanu Reeves, (0, -400), Brad Pitt, (550, -100), Patrick Dempsey, (-550, -100), Daniel Radcliffe, (-300, 300), Daniel Craig, [230. 310.], 1, 6.285565699916333
sub-04, trial8, 08, Hugh Jackman, ID08_IM04.bmp, (0, -400), Leonardo DiCaprio, (550, -100), Matt Damon, (300, 300), Daniel Craig, (-550, -100), Justin Timberlake, (-300, 300), idk, [27. 38.], 0, 1.4396871998906136
sub-04, trial36, 05, Daniel Radcliffe, ID05_IM04.bmp, (-550, -100), Ryan Gosling, (300, 300), Keanu Reeves, (-300, 300), Hugh Jackman, (0, -400), Patrick Dempsey, (550, -100), Daniel Radcliffe, [-461.  -67.], 1, 3.3641737001016736
sub-04, trial66, 12, Matt Damon, ID12_IM03.bmp, (550, -100), Hugh Jackman, (300, 300), George Clooney, (-300, 300), Daniel Radcliffe, (-550, -100), Elijah Wood, (0, -400), idk, [-67.  16.], 0, 2.6830194001086056
sub-04, trial34, 18, Ryan Reynolds, ID18_IM03.bmp, (-300, 300), Daniel Craig, (-550, -100), Robert Downey Jr, (300, 300), Leonardo DiCaprio, (550, -100), Ben Stiller, (0, -400), Ryan Reynolds, [-273.  314.], 1, 3.0532664000056684
sub-04, trial47, 11, Leonardo DiCaprio, ID11_IM01.bmp, (-300, 300), Brad Pitt, (550, -100), Justin Timberlake, (0, -400), George Clooney, (-550, -100), Ben Affleck, (300, 300), Leonardo DiCaprio, [-198.  314.], 1, 3.5220967999193817
sub-04, trial44, 16, Robert Pattinson, ID16_IM02.bmp, (300, 300), George Clooney, (550, -100), Ryan Reynolds, (-550, -100), Elijah Wood, (0, -400), Ryan Gosling, (-300, 300), Robert Pattinson, [243. 313.], 1, 2.034565000096336
sub-04, trial32, 06, Elijah Wood, ID06_IM03.bmp, (-550, -100), Ryan Gosling, (300, 300), Patrick Dempsey, (550, -100), Leonardo DiCaprio, (0, -400), Robert Pattinson, (-300, 300), idk, [14. 46.], 0, 4.286442199954763
sub-04, trial49, 02, Ben Stiller, ID02_IM04.bmp, (-300, 300), Elijah Wood, (300, 300), Ben Affleck, (0, -400), Leonardo DiCaprio, (550, -100), Brad Pitt, (-550, -100), familiar face, [ -26. -129.], 1, 3.416862200014293
sub-04, trial53, 02, Ben Stiller, ID02_IM03.bmp, (0, -400), Leonardo DiCaprio, (-300, 300), Daniel Craig, (-550, -100), Ben Affleck, (300, 300), Ryan Reynolds, (550, -100), familiar face, [ -26. -128.], 1, 0.8703479999676347
sub-04, trial16, 17, Ryan Gosling, ID17_IM04.bmp, (-550, -100), Ryan Reynolds, (550, -100), Leonardo DiCaprio, (300, 300), Robert Downey Jr, (-300, 300), George Clooney, (0, -400), Ryan Gosling, [-486. -123.], 1, 5.881021399982274
sub-04, trial14, 01, Ben Affleck, ID01_IM02.bmp, (300, 300), Daniel Radcliffe, (-550, -100), Elijah Wood, (-300, 300), Keanu Reeves, (550, -100), Robert Pattinson, (0, -400), idk, [14. 73.], 0, 2.916034699883312
sub-04, trial51, 12, Matt Damon, ID12_IM04.bmp, (-550, -100), Leonardo DiCaprio, (550, -100), Ben Stiller, (-300, 300), Orlando Bloom, (300, 300), Keanu Reeves, (0, -400), Matt Damon, [-452.  -98.], 1, 2.8532809000462294
sub-04, trial11, 16, Robert Pattinson, ID16_IM01.bmp, (-300, 300), Daniel Craig, (550, -100), Ryan Gosling, (300, 300), Ryan Reynolds, (0, -400), Daniel Radcliffe, (-550, -100), Robert Pattinson, [-248.  282.], 1, 2.3380541000515223
sub-04, trial61, 13, Orlando Bloom, ID13_IM04.bmp, (550, -100), Ryan Gosling, (0, -400), Ben Stiller, (-300, 300), Ben Affleck, (-550, -100), Matt Damon, (300, 300), familiar face, [-34. -87.], 1, 3.0823121001012623
sub-04, trial27, 17, Ryan Gosling, ID17_IM01.bmp, (-550, -100), Ben Affleck, (-300, 300), Patrick Dempsey, (300, 300), Brad Pitt, (0, -400), Robert Pattinson, (550, -100), Ryan Gosling, [-449.  -93.], 1, 2.308265599887818
sub-04, trial10, 18, Ryan Reynolds, ID18_IM04.bmp, (300, 300), Brad Pitt, (0, -400), Orlando Bloom, (-300, 300), Robert Pattinson, (-550, -100), Daniel Craig, (550, -100), familiar face, [-134.  -93.], 1, 1.8781995000317693
sub-04, trial58, 08, Hugh Jackman, ID08_IM01.bmp, (-300, 300), Keanu Reeves, (0, -400), Matt Damon, (-550, -100), Daniel Radcliffe, (300, 300), Leonardo DiCaprio, (550, -100), idk, [-95.  36.], 0, 2.2243608999997377
sub-04, trial28, 05, Daniel Radcliffe, ID05_IM02.bmp, (-300, 300), Keanu Reeves, (300, 300), Ryan Reynolds, (-550, -100), Daniel Craig, (0, -400), Ben Affleck, (550, -100), Daniel Radcliffe, [-246.  295.], 1, 1.8212301000021398
sub-04, trial52, 03, Brad Pitt, ID03_IM01.bmp, (-300, 300), Keanu Reeves, (300, 300), Ben Affleck, (0, -400), Ben Stiller, (550, -100), Justin Timberlake, (-550, -100), Brad Pitt, [-290.  306.], 1, 1.8581149999517947
sub-04, trial5, 08, Hugh Jackman, ID08_IM02.bmp, (-300, 300), Orlando Bloom, (300, 300), Ben Affleck, (-550, -100), Keanu Reeves, (550, -100), Elijah Wood, (0, -400), familiar face, [ -63. -126.], 1, 2.8862557001411915
sub-04, trial4, 12, Matt Damon, ID12_IM01.bmp, (-550, -100), George Clooney, (550, -100), Leonardo DiCaprio, (0, -400), Robert Pattinson, (-300, 300), Daniel Radcliffe, (300, 300), Matt Damon, [-448. -104.], 1, 2.0503842998296022
sub-04, trial7, 10, Keanu Reeves, ID10_IM03.bmp, (-550, -100), George Clooney, (550, -100), Ben Affleck, (0, -400), Ryan Gosling, (-300, 300), Robert Downey Jr, (300, 300), idk, [-85.  70.], 0, 1.5476196000818163
sub-04, trial29, 03, Brad Pitt, ID03_IM03.bmp, (-300, 300), Daniel Craig, (-550, -100), George Clooney, (300, 300), Ryan Gosling, (550, -100), Ben Affleck, (0, -400), Brad Pitt, [-232.  289.], 1, 4.315880000125617
sub-04, trial60, 15, Robert Downey Jr, ID15_IM02.bmp, (300, 300), George Clooney, (-550, -100), Hugh Jackman, (0, -400), Leonardo DiCaprio, (-300, 300), Orlando Bloom, (550, -100), familiar face, [ 80. -73.], 1, 7.052745599998161
sub-04, trial48, 15, Robert Downey Jr, ID15_IM04.bmp, (0, -400), Patrick Dempsey, (-300, 300), Ryan Gosling, (-550, -100), Daniel Craig, (300, 300), Brad Pitt, (550, -100), familiar face, [ 90. -79.], 1, 1.1517747000325471
sub-04, trial2, 07, George Clooney, ID07_IM04.bmp, (300, 300), Ryan Gosling, (0, -400), Justin Timberlake, (-300, 300), Hugh Jackman, (550, -100), Robert Downey Jr, (-550, -100), George Clooney, [277. 298.], 1, 3.2950105001218617
sub-04, trial19, 09, Justin Timberlake, ID09_IM01.bmp, (300, 300), Ben Stiller, (550, -100), Robert Downey Jr, (-300, 300), Matt Damon, (0, -400), Leonardo DiCaprio, (-550, -100), Justin Timberlake, [277. 299.], 1, 1.2330745998769999
