subject,trial,celeb_id,celeb_name,celeb_image,celeb_position,rand0_name,rand0_pos,rand1_name,rand1_pos,rand2_name,rand2_pos,rand3_name,rand3_pos,answer_celeb,answer_position,correct,rt
sub-01, trial37, 05, Daniel Radcliffe, ID05_IM04.bmp, (0, -400), Brad Pitt, (550, -100), Patrick Dempsey, (300, 300), Robert Downey Jr, (-550, -100), Ryan Gosling, (-300, 300), Daniel Radcliffe, [  28. -392.], 1, 2.905935800052248
sub-01, trial22, 09, Justin Timberlake, ID09_IM04.bmp, (300, 300), Keanu Reeves, (-300, 300), Orlando Bloom, (0, -400), Ben Affleck, (-550, -100), Brad Pitt, (550, -100), Justin Timberlake, [232. 302.], 1, 1.778439899906516
sub-01, trial48, 11, Leonardo DiCaprio, ID11_IM01.bmp, (300, 300), George Clooney, (0, -400), Patrick Dempsey, (-550, -100), Daniel Craig, (550, -100), Keanu Reeves, (-300, 300), Leonardo DiCaprio, [183. 264.], 1, 2.4648595999460667
sub-01, trial71, 14, Patrick Dempsey, ID14_IM04.bmp, (-300, 300), George Clooney, (-550, -100), Hugh Jackman, (550, -100), Ryan Reynolds, (300, 300), Ben Stiller, (0, -400), Patrick Dempsey, [-156.  274.], 1, 1.8041132000507787
sub-01, trial34, 06, Elijah Wood, ID06_IM02.bmp, (0, -400), Keanu Reeves, (300, 300), Robert Pattinson, (-550, -100), Matt Damon, (-300, 300), Hugh Jackman, (550, -100), Elijah Wood, [  46. -376.], 1, 1.7304783998988569
sub-01, trial13, 08, Hugh Jackman, ID08_IM01.bmp, (-550, -100), Ben Affleck, (550, -100), Ryan Reynolds, (300, 300), Robert Downey Jr, (-300, 300), Robert Pattinson, (0, -400), Hugh Jackman, [-439. -104.], 1, 2.330014699953608
sub-01, trial7, 06, Elijah Wood, ID06_IM01.bmp, (-550, -100), Robert Downey Jr, (300, 300), Hugh Jackman, (0, -400), Keanu Reeves, (-300, 300), Leonardo DiCaprio, (550, -100), Elijah Wood, [-419. -110.], 1, 2.1874687999952585
sub-01, trial56, 07, George Clooney, ID07_IM04.bmp, (300, 300), Ben Affleck, (-550, -100), Daniel Craig, (-300, 300), Ryan Gosling, (0, -400), Keanu Reeves, (550, -100), George Clooney, [180. 302.], 1, 1.104641400044784
sub-01, trial23, 16, Robert Pattinson, ID16_IM04.bmp, (0, -400), Brad Pitt, (550, -100), Elijah Wood, (-300, 300), Ben Affleck, (-550, -100), Robert Downey Jr, (300, 300), Robert Pattinson, [  25. -396.], 1, 1.3022349000675604
sub-01, trial70, 07, George Clooney, ID07_IM03.bmp, (-300, 300), Matt Damon, (-550, -100), Ben Stiller, (0, -400), Ben Affleck, (550, -100), Robert Pattinson, (300, 300), George Clooney, [-171.  264.], 1, 1.2091389999259263
sub-01, trial64, 04, Daniel Craig, ID04_IM04.bmp, (-550, -100), Brad Pitt, (550, -100), Keanu Reeves, (-300, 300), George Clooney, (0, -400), Daniel Radcliffe, (300, 300), Daniel Craig, [-427. -106.], 1, 1.1989548000274226
sub-01, trial44, 06, Elijah Wood, ID06_IM03.bmp, (-300, 300), Ben Stiller, (550, -100), Ryan Gosling, (0, -400), George Clooney, (300, 300), Leonardo DiCaprio, (-550, -100), Elijah Wood, [-306.  294.], 1, 1.3320983999874443
sub-01, trial38, 16, Robert Pattinson, ID16_IM03.bmp, (0, -400), Leonardo DiCaprio, (300, 300), Hugh Jackman, (-550, -100), Brad Pitt, (-300, 300), Ryan Reynolds, (550, -100), Robert Pattinson, [ -37. -387.], 1, 1.2212818000698462
sub-01, trial66, 18, Ryan Reynolds, ID18_IM01.bmp, (300, 300), Ryan Gosling, (-550, -100), Robert Pattinson, (0, -400), Patrick Dempsey, (550, -100), Daniel Craig, (-300, 300), Ryan Reynolds, [194. 279.], 1, 1.410333800013177
sub-01, trial5, 12, Matt Damon, ID12_IM01.bmp, (0, -400), Ben Stiller, (-550, -100), Elijah Wood, (300, 300), Ben Affleck, (550, -100), Brad Pitt, (-300, 300), Matt Damon, [ -15. -403.], 1, 1.7116620000451803
sub-01, trial63, 09, Justin Timberlake, ID09_IM03.bmp, (-300, 300), Keanu Reeves, (-550, -100), Patrick Dempsey, (300, 300), Ben Stiller, (0, -400), Hugh Jackman, (550, -100), Justin Timberlake, [-297.  279.], 1, 0.9446376000996679
sub-01, trial52, 13, Orlando Bloom, ID13_IM02.bmp, (550, -100), Daniel Craig, (-300, 300), Justin Timberlake, (0, -400), Matt Damon, (300, 300), Keanu Reeves, (-550, -100), Orlando Bloom, [ 444. -104.], 1, 1.3371784000191838
sub-01, trial9, 11, Leonardo DiCaprio, ID11_IM04.bmp, (550, -100), Ben Stiller, (300, 300), Robert Downey Jr, (-300, 300), Daniel Radcliffe, (-550, -100), Ryan Gosling, (0, -400), Leonardo DiCaprio, [430. -80.], 1, 2.0644348999485373
sub-01, trial67, 04, Daniel Craig, ID04_IM02.bmp, (-550, -100), Elijah Wood, (550, -100), Orlando Bloom, (-300, 300), Patrick Dempsey, (300, 300), Robert Pattinson, (0, -400), Daniel Craig, [-395.  -78.], 1, 1.3079944000346586
sub-01, trial54, 14, Patrick Dempsey, ID14_IM02.bmp, (-300, 300), Ryan Gosling, (-550, -100), Orlando Bloom, (0, -400), Leonardo DiCaprio, (300, 300), Keanu Reeves, (550, -100), Patrick Dempsey, [-333.  290.], 1, 0.8141748999478295
sub-01, trial60, 09, Justin Timberlake, ID09_IM01.bmp, (550, -100), Hugh Jackman, (300, 300), Leonardo DiCaprio, (0, -400), Ben Affleck, (-550, -100), Brad Pitt, (-300, 300), Justin Timberlake, [430. -95.], 1, 1.4815304999938235
sub-01, trial18, 02, Ben Stiller, ID02_IM01.bmp, (0, -400), Justin Timberlake, (-300, 300), Robert Pattinson, (300, 300), Elijah Wood, (-550, -100), Ryan Gosling, (550, -100), Ben Stiller, [  35. -408.], 1, 1.9482826000312343
sub-01, trial69, 18, Ryan Reynolds, ID18_IM04.bmp, (-300, 300), Ben Stiller, (300, 300), Robert Pattinson, (-550, -100), Elijah Wood, (0, -400), Daniel Craig, (550, -100), Ryan Reynolds, [-193.  286.], 1, 1.195020699989982
sub-01, trial35, 16, Robert Pattinson, ID16_IM02.bmp, (550, -100), Justin Timberlake, (0, -400), Leonardo DiCaprio, (-550, -100), Ryan Reynolds, (300, 300), Matt Damon, (-300, 300), Robert Pattinson, [441. -68.], 1, 1.8655887000495568
sub-01, trial31, 04, Daniel Craig, ID04_IM03.bmp, (0, -400), George Clooney, (550, -100), Elijah Wood, (-300, 300), Hugh Jackman, (-550, -100), Leonardo DiCaprio, (300, 300), Daniel Craig, [  42. -383.], 1, 1.7412778999423608
sub-01, trial62, 11, Leonardo DiCaprio, ID11_IM02.bmp, (0, -400), Ryan Reynolds, (-300, 300), Orlando Bloom, (300, 300), Brad Pitt, (-550, -100), Ben Affleck, (550, -100), Leonardo DiCaprio, [ -67. -389.], 1, 1.148699100012891
sub-01, trial68, 16, Robert Pattinson, ID16_IM01.bmp, (550, -100), Leonardo DiCaprio, (300, 300), Keanu Reeves, (-300, 300), Orlando Bloom, (-550, -100), Ryan Gosling, (0, -400), Robert Pattinson, [505. -99.], 1, 1.5325179999927059
sub-01, trial12, 12, Matt Damon, ID12_IM02.bmp, (-300, 300), Ryan Reynolds, (-550, -100), Ben Stiller, (550, -100), Robert Downey Jr, (0, -400), Patrick Dempsey, (300, 300), Matt Damon, [-240.  292.], 1, 0.9802995999343693
sub-01, trial55, 14, Patrick Dempsey, ID14_IM01.bmp, (-550, -100), Ben Affleck, (-300, 300), Elijah Wood, (0, -400), George Clooney, (550, -100), Brad Pitt, (300, 300), Patrick Dempsey, [-404.  -81.], 1, 1.3701969999819994
sub-01, trial72, 12, Matt Damon, ID12_IM03.bmp, (550, -100), Keanu Reeves, (0, -400), Ryan Gosling, (300, 300), Brad Pitt, (-550, -100), Elijah Wood, (-300, 300), Matt Damon, [448. -87.], 1, 1.5854402999393642
sub-01, trial26, 03, Brad Pitt, ID03_IM02.bmp, (-300, 300), Ben Affleck, (300, 300), George Clooney, (0, -400), Ben Stiller, (550, -100), Ryan Reynolds, (-550, -100), Brad Pitt, [-242.  293.], 1, 1.1203974999953061
sub-01, trial24, 03, Brad Pitt, ID03_IM01.bmp, (-300, 300), Ben Stiller, (-550, -100), Daniel Radcliffe, (300, 300), Ben Affleck, (0, -400), Hugh Jackman, (550, -100), Brad Pitt, [-242.  293.], 1, 0.6565479999408126
sub-01, trial39, 08, Hugh Jackman, ID08_IM03.bmp, (0, -400), Ben Affleck, (-300, 300), Ryan Reynolds, (550, -100), Orlando Bloom, (300, 300), Keanu Reeves, (-550, -100), Hugh Jackman, [   4. -379.], 1, 1.2776431000092998
sub-01, trial16, 10, Keanu Reeves, ID10_IM03.bmp, (550, -100), Ben Stiller, (-550, -100), Robert Pattinson, (-300, 300), George Clooney, (0, -400), Ryan Gosling, (300, 300), Keanu Reeves, [486. -98.], 1, 1.9119422999210656
sub-01, trial15, 17, Ryan Gosling, ID17_IM01.bmp, (-300, 300), Justin Timberlake, (0, -400), Ryan Reynolds, (300, 300), Brad Pitt, (550, -100), Ben Affleck, (-550, -100), Ryan Gosling, [-230.  314.], 1, 1.2330248999642208
sub-01, trial10, 03, Brad Pitt, ID03_IM04.bmp, (-300, 300), Justin Timberlake, (300, 300), Robert Pattinson, (-550, -100), Elijah Wood, (550, -100), Daniel Radcliffe, (0, -400), Brad Pitt, [-269.  267.], 1, 1.5663365999935195
sub-01, trial11, 17, Ryan Gosling, ID17_IM03.bmp, (0, -400), Patrick Dempsey, (550, -100), George Clooney, (-550, -100), Daniel Craig, (300, 300), Matt Damon, (-300, 300), Ryan Gosling, [  58. -385.], 1, 1.6606710999039933
sub-01, trial61, 13, Orlando Bloom, ID13_IM01.bmp, (550, -100), Robert Downey Jr, (300, 300), Elijah Wood, (0, -400), Ben Stiller, (-300, 300), Daniel Radcliffe, (-550, -100), Orlando Bloom, [506. -91.], 1, 1.1204600998898968
sub-01, trial29, 15, Robert Downey Jr, ID15_IM01.bmp, (550, -100), Hugh Jackman, (-300, 300), Ben Stiller, (300, 300), Ryan Reynolds, (0, -400), Ryan Gosling, (-550, -100), Robert Downey Jr, [ 390. -114.], 1, 1.9936426000203937
sub-01, trial59, 14, Patrick Dempsey, ID14_IM03.bmp, (-550, -100), Robert Pattinson, (-300, 300), Justin Timberlake, (300, 300), Brad Pitt, (550, -100), Hugh Jackman, (0, -400), Patrick Dempsey, [-434.  -92.], 1, 1.8714176000794396
sub-01, trial1, 01, Ben Affleck, ID01_IM01.bmp, (300, 300), Ben Stiller, (-550, -100), Patrick Dempsey, (0, -400), Brad Pitt, (550, -100), Ryan Gosling, (-300, 300), Ben Affleck, [210. 311.], 1, 1.1549444000702351
sub-01, trial21, 11, Leonardo DiCaprio, ID11_IM03.bmp, (-550, -100), Elijah Wood, (0, -400), Ryan Reynolds, (550, -100), Hugh Jackman, (-300, 300), Keanu Reeves, (300, 300), Leonardo DiCaprio, [-405. -120.], 1, 1.2503746000584215
sub-01, trial58, 15, Robert Downey Jr, ID15_IM04.bmp, (-300, 300), Daniel Radcliffe, (300, 300), Matt Damon, (0, -400), Ryan Reynolds, (-550, -100), Ben Stiller, (550, -100), Robert Downey Jr, [-330.  289.], 1, 2.3979400999378413
sub-01, trial20, 07, George Clooney, ID07_IM01.bmp, (-550, -100), Elijah Wood, (-300, 300), Ben Stiller, (550, -100), Daniel Craig, (0, -400), Ryan Gosling, (300, 300), George Clooney, [-447.  -98.], 1, 1.3003788000205532
sub-01, trial33, 03, Brad Pitt, ID03_IM03.bmp, (300, 300), Robert Downey Jr, (-550, -100), Ryan Reynolds, (-300, 300), Keanu Reeves, (0, -400), Robert Pattinson, (550, -100), Brad Pitt, [167. 306.], 1, 1.0776437999447808
sub-01, trial43, 13, Orlando Bloom, ID13_IM03.bmp, (0, -400), Justin Timberlake, (-550, -100), Patrick Dempsey, (300, 300), Keanu Reeves, (550, -100), Hugh Jackman, (-300, 300), Orlando Bloom, [  12. -375.], 1, 1.4968109000474215
sub-01, trial50, 02, Ben Stiller, ID02_IM04.bmp, (-300, 300), Patrick Dempsey, (550, -100), George Clooney, (300, 300), Robert Pattinson, (0, -400), Orlando Bloom, (-550, -100), Ben Stiller, [-302.  286.], 1, 1.074110500048846
sub-01, trial17, 09, Justin Timberlake, ID09_IM02.bmp, (550, -100), Daniel Craig, (0, -400), Brad Pitt, (300, 300), Ryan Reynolds, (-300, 300), Robert Downey Jr, (-550, -100), Justin Timberlake, [467. -82.], 1, 0.804701599990949
sub-01, trial3, 18, Ryan Reynolds, ID18_IM03.bmp, (0, -400), Robert Downey Jr, (300, 300), Brad Pitt, (-300, 300), Justin Timberlake, (-550, -100), Robert Pattinson, (550, -100), Ryan Reynolds, [ -11. -386.], 1, 1.394578600069508
sub-01, trial8, 01, Ben Affleck, ID01_IM04.bmp, (550, -100), Ben Stiller, (-550, -100), Robert Pattinson, (-300, 300), Matt Damon, (300, 300), Daniel Radcliffe, (0, -400), Ben Affleck, [ 484. -101.], 1, 1.1368469999870285
sub-01, trial36, 13, Orlando Bloom, ID13_IM04.bmp, (0, -400), Hugh Jackman, (300, 300), Elijah Wood, (-300, 300), Keanu Reeves, (550, -100), Robert Pattinson, (-550, -100), Orlando Bloom, [ 125. -390.], 1, 1.8562694999855012
sub-01, trial40, 10, Keanu Reeves, ID10_IM01.bmp, (300, 300), Orlando Bloom, (0, -400), Elijah Wood, (-300, 300), Hugh Jackman, (-550, -100), Matt Damon, (550, -100), Keanu Reeves, [208. 301.], 1, 1.0836894999956712
sub-01, trial4, 06, Elijah Wood, ID06_IM04.bmp, (550, -100), Orlando Bloom, (-550, -100), Ryan Gosling, (0, -400), Patrick Dempsey, (-300, 300), Keanu Reeves, (300, 300), Elijah Wood, [ 466. -108.], 1, 1.462152099935338
sub-01, trial65, 02, Ben Stiller, ID02_IM03.bmp, (-550, -100), Keanu Reeves, (0, -400), Elijah Wood, (550, -100), Leonardo DiCaprio, (-300, 300), Orlando Bloom, (300, 300), Ben Stiller, [-475. -103.], 1, 1.9366775000235066
sub-01, trial47, 17, Ryan Gosling, ID17_IM02.bmp, (550, -100), George Clooney, (-300, 300), Ryan Reynolds, (300, 300), Leonardo DiCaprio, (0, -400), Elijah Wood, (-550, -100), Ryan Gosling, [443. -85.], 1, 1.457478400086984
sub-01, trial28, 01, Ben Affleck, ID01_IM03.bmp, (550, -100), Leonardo DiCaprio, (300, 300), Brad Pitt, (-550, -100), George Clooney, (-300, 300), Robert Pattinson, (0, -400), Ben Affleck, [460. -77.], 1, 1.6851523999357596
sub-01, trial46, 04, Daniel Craig, ID04_IM01.bmp, (300, 300), Ben Affleck, (550, -100), Brad Pitt, (0, -400), Robert Downey Jr, (-300, 300), Robert Pattinson, (-550, -100), Daniel Craig, [203. 318.], 1, 1.0157286999747157
sub-01, trial45, 08, Hugh Jackman, ID08_IM02.bmp, (300, 300), Elijah Wood, (550, -100), George Clooney, (0, -400), Robert Pattinson, (-300, 300), Ryan Reynolds, (-550, -100), Hugh Jackman, [225. 303.], 1, 2.060412500053644
sub-01, trial49, 17, Ryan Gosling, ID17_IM04.bmp, (550, -100), Hugh Jackman, (-550, -100), Ben Stiller, (0, -400), Ryan Reynolds, (300, 300), Leonardo DiCaprio, (-300, 300), Ryan Gosling, [472. -74.], 1, 1.0950051000108942
sub-01, trial19, 10, Keanu Reeves, ID10_IM02.bmp, (300, 300), Justin Timberlake, (-550, -100), Ben Stiller, (-300, 300), Robert Downey Jr, (550, -100), Brad Pitt, (0, -400), Keanu Reeves, [259. 284.], 1, 0.8239720000419766
sub-01, trial27, 02, Ben Stiller, ID02_IM02.bmp, (550, -100), Daniel Craig, (-300, 300), Ryan Gosling, (0, -400), Justin Timberlake, (300, 300), Robert Pattinson, (-550, -100), Ben Stiller, [465. -78.], 1, 1.4295489999931306
sub-01, trial41, 18, Ryan Reynolds, ID18_IM02.bmp, (-550, -100), George Clooney, (0, -400), Daniel Craig, (-300, 300), Leonardo DiCaprio, (550, -100), Robert Downey Jr, (300, 300), Ryan Reynolds, [-485.  -93.], 1, 1.289972999948077
sub-01, trial30, 08, Hugh Jackman, ID08_IM04.bmp, (-550, -100), Matt Damon, (-300, 300), Daniel Craig, (0, -400), Robert Pattinson, (300, 300), Keanu Reeves, (550, -100), Hugh Jackman, [-459.  -96.], 1, 1.2286434000125155
sub-01, trial25, 12, Matt Damon, ID12_IM04.bmp, (-300, 300), Ryan Gosling, (-550, -100), Ryan Reynolds, (550, -100), Daniel Radcliffe, (300, 300), Daniel Craig, (0, -400), Matt Damon, [-263.  300.], 1, 1.720967200002633
sub-01, trial53, 15, Robert Downey Jr, ID15_IM03.bmp, (550, -100), Justin Timberlake, (-300, 300), George Clooney, (300, 300), Patrick Dempsey, (-550, -100), Ben Stiller, (0, -400), Robert Downey Jr, [428. -61.], 1, 1.1610766999656335
sub-01, trial2, 10, Keanu Reeves, ID10_IM04.bmp, (-550, -100), Patrick Dempsey, (300, 300), Leonardo DiCaprio, (0, -400), Ryan Gosling, (550, -100), Orlando Bloom, (-300, 300), Keanu Reeves, [-420. -115.], 1, 1.7848850999725983
sub-01, trial51, 05, Daniel Radcliffe, ID05_IM02.bmp, (300, 300), Brad Pitt, (0, -400), Daniel Craig, (550, -100), Matt Damon, (-550, -100), Robert Pattinson, (-300, 300), Daniel Radcliffe, [211. 265.], 1, 1.4633159999502823
sub-01, trial14, 07, George Clooney, ID07_IM02.bmp, (-300, 300), Ben Affleck, (550, -100), Justin Timberlake, (300, 300), Hugh Jackman, (0, -400), Daniel Craig, (-550, -100), George Clooney, [-268.  288.], 1, 1.2423609999241307
sub-01, trial32, 05, Daniel Radcliffe, ID05_IM03.bmp, (-300, 300), Ryan Gosling, (300, 300), Elijah Wood, (550, -100), Brad Pitt, (0, -400), Daniel Craig, (-550, -100), Daniel Radcliffe, [-237.  310.], 1, 1.1260575000196695
sub-01, trial57, 01, Ben Affleck, ID01_IM02.bmp, (300, 300), Hugh Jackman, (-300, 300), Daniel Radcliffe, (-550, -100), Justin Timberlake, (550, -100), Brad Pitt, (0, -400), Ben Affleck, [289. 299.], 1, 2.01466869993601
sub-01, trial42, 05, Daniel Radcliffe, ID05_IM01.bmp, (-550, -100), Robert Pattinson, (-300, 300), Justin Timberlake, (300, 300), Daniel Craig, (0, -400), Ben Affleck, (550, -100), Daniel Radcliffe, [-384.  -69.], 1, 1.1318196998909116
sub-01, trial6, 15, Robert Downey Jr, ID15_IM02.bmp, (550, -100), Leonardo DiCaprio, (300, 300), Daniel Radcliffe, (-550, -100), Robert Pattinson, (-300, 300), Orlando Bloom, (0, -400), Robert Downey Jr, [ 601. -100.], 1, 0.9872583000687882
