subject,trial,celeb_id,celeb_name,celeb_image,celeb_position,rand0_name,rand0_pos,rand1_name,rand1_pos,rand2_name,rand2_pos,rand3_name,rand3_pos,answer_celeb,answer_position,correct,rt
sub-12, trial30, 08, Hugh Jackman, ID08_IM02.bmp, (-550, -100), Orlando Bloom, (-300, 300), Elijah Wood, (550, -100), Matt Damon, (0, -400), Justin Timberlake, (300, 300), Orlando Bloom, [-228.  294.], 0, 3.747518400021363
sub-12, trial23, 17, Ryan Gosling, ID17_IM03.bmp, (-300, 300), Elijah Wood, (-550, -100), Keanu Reeves, (0, -400), Robert Downey Jr, (300, 300), Ben Stiller, (550, -100), Ryan Gosling, [-249.  279.], 1, 2.274924599973019
sub-12, trial70, 09, Justin Timberlake, ID09_IM02.bmp, (300, 300), Ben Stiller, (550, -100), Robert Pattinson, (-550, -100), George Clooney, (0, -400), Matt Damon, (-300, 300), Justin Timberlake, [207. 285.], 1, 1.5015773000195622
sub-12, trial5, 10, Keanu Reeves, ID10_IM01.bmp, (0, -400), Matt Damon, (-550, -100), Ben Affleck, (300, 300), Patrick Dempsey, (-300, 300), Ryan Reynolds, (550, -100), Keanu Reeves, [  72. -380.], 1, 2.7832748999935575
sub-12, trial17, 01, Ben Affleck, ID01_IM04.bmp, (-300, 300), Matt Damon, (0, -400), Ryan Reynolds, (300, 300), Orlando Bloom, (550, -100), Robert Pattinson, (-550, -100), Matt Damon, [ -52. -374.], 0, 3.1903358999988995
sub-12, trial6, 09, Justin Timberlake, ID09_IM04.bmp, (300, 300), Robert Pattinson, (550, -100), Matt Damon, (-300, 300), Hugh Jackman, (-550, -100), Elijah Wood, (0, -400), Justin Timberlake, [285. 314.], 1, 1.5635809000232257
sub-12, trial32, 03, Brad Pitt, ID03_IM01.bmp, (550, -100), George Clooney, (-300, 300), Daniel Craig, (-550, -100), Ryan Gosling, (0, -400), Justin Timberlake, (300, 300), Brad Pitt, [ 440. -114.], 1, 1.554952900041826
sub-12, trial57, 12, Matt Damon, ID12_IM04.bmp, (550, -100), Robert Downey Jr, (-300, 300), Daniel Radcliffe, (300, 300), Ryan Gosling, (0, -400), Justin Timberlake, (-550, -100), Matt Damon, [448. -84.], 1, 3.0339306999812834
sub-12, trial63, 04, Daniel Craig, ID04_IM02.bmp, (550, -100), Ryan Gosling, (300, 300), Orlando Bloom, (-300, 300), Leonardo DiCaprio, (-550, -100), Matt Damon, (0, -400), Daniel Craig, [ 449. -127.], 1, 3.3431095999549143
sub-12, trial7, 16, Robert Pattinson, ID16_IM01.bmp, (-550, -100), Ben Affleck, (550, -100), Ben Stiller, (-300, 300), Ryan Reynolds, (300, 300), Robert Downey Jr, (0, -400), Robert Pattinson, [-473. -107.], 1, 2.478474000003189
sub-12, trial69, 05, Daniel Radcliffe, ID05_IM01.bmp, (-300, 300), Hugh Jackman, (0, -400), Robert Downey Jr, (-550, -100), Ryan Reynolds, (550, -100), Keanu Reeves, (300, 300), Daniel Radcliffe, [-251.  293.], 1, 1.9132102000294253
sub-12, trial66, 14, Patrick Dempsey, ID14_IM03.bmp, (-300, 300), Ryan Reynolds, (550, -100), George Clooney, (300, 300), Ben Affleck, (-550, -100), Justin Timberlake, (0, -400), Patrick Dempsey, [-249.  293.], 1, 1.2267790000187233
sub-12, trial64, 02, Ben Stiller, ID02_IM02.bmp, (550, -100), Daniel Radcliffe, (0, -400), Elijah Wood, (-550, -100), Patrick Dempsey, (300, 300), Ryan Reynolds, (-300, 300), Ben Stiller, [ 525. -111.], 1, 3.0162421999848448
sub-12, trial2, 16, Robert Pattinson, ID16_IM03.bmp, (-300, 300), Leonardo DiCaprio, (550, -100), Justin Timberlake, (-550, -100), Keanu Reeves, (300, 300), Brad Pitt, (0, -400), Robert Pattinson, [-202.  278.], 1, 1.605363100010436
sub-12, trial68, 17, Ryan Gosling, ID17_IM02.bmp, (550, -100), Orlando Bloom, (-300, 300), Ben Stiller, (-550, -100), Ben Affleck, (300, 300), Robert Downey Jr, (0, -400), Ryan Gosling, [ 485. -117.], 1, 2.0432180000352673
sub-12, trial54, 09, Justin Timberlake, ID09_IM01.bmp, (-300, 300), Elijah Wood, (-550, -100), Orlando Bloom, (0, -400), Keanu Reeves, (300, 300), Hugh Jackman, (550, -100), Justin Timberlake, [-244.  288.], 1, 1.2228465999942273
sub-12, trial21, 02, Ben Stiller, ID02_IM01.bmp, (300, 300), Ryan Reynolds, (0, -400), Ben Affleck, (-300, 300), Robert Downey Jr, (550, -100), George Clooney, (-550, -100), Ben Stiller, [277. 290.], 1, 1.9320386000326835
sub-12, trial33, 14, Patrick Dempsey, ID14_IM02.bmp, (0, -400), Robert Downey Jr, (-550, -100), Elijah Wood, (550, -100), Keanu Reeves, (-300, 300), Orlando Bloom, (300, 300), Patrick Dempsey, [  66. -403.], 1, 1.9722932999720797
sub-12, trial38, 13, Orlando Bloom, ID13_IM04.bmp, (0, -400), Ben Affleck, (550, -100), Ryan Reynolds, (-550, -100), Robert Downey Jr, (-300, 300), Keanu Reeves, (300, 300), Orlando Bloom, [  66. -401.], 1, 1.9071747999987565
sub-12, trial42, 08, Hugh Jackman, ID08_IM01.bmp, (550, -100), Ben Affleck, (300, 300), Keanu Reeves, (-550, -100), Leonardo DiCaprio, (-300, 300), Ryan Reynolds, (0, -400), Hugh Jackman, [ 523. -105.], 1, 2.7399443999747746
sub-12, trial37, 16, Robert Pattinson, ID16_IM04.bmp, (550, -100), Ben Affleck, (0, -400), Patrick Dempsey, (-300, 300), Daniel Craig, (300, 300), Robert Downey Jr, (-550, -100), Robert Pattinson, [ 525. -105.], 1, 1.2685229000053369
sub-12, trial44, 05, Daniel Radcliffe, ID05_IM04.bmp, (300, 300), Daniel Craig, (-550, -100), Hugh Jackman, (-300, 300), Ryan Gosling, (0, -400), Justin Timberlake, (550, -100), Daniel Radcliffe, [377. 284.], 1, 2.519001099979505
sub-12, trial45, 01, Ben Affleck, ID01_IM02.bmp, (0, -400), Ryan Reynolds, (300, 300), Ryan Gosling, (-300, 300), Elijah Wood, (-550, -100), Ben Stiller, (550, -100), Ben Affleck, [  84. -388.], 1, 2.78433260001475
sub-12, trial29, 15, Robert Downey Jr, ID15_IM04.bmp, (-550, -100), Elijah Wood, (0, -400), Orlando Bloom, (300, 300), Robert Pattinson, (550, -100), Daniel Craig, (-300, 300), familiar face, [  32. -117.], 1, 2.934613600024022
sub-12, trial31, 04, Daniel Craig, ID04_IM04.bmp, (-550, -100), Hugh Jackman, (0, -400), Robert Pattinson, (-300, 300), Ryan Reynolds, (300, 300), Justin Timberlake, (550, -100), Daniel Craig, [-459.  -90.], 1, 1.3590770000009798
sub-12, trial49, 07, George Clooney, ID07_IM01.bmp, (-300, 300), Hugh Jackman, (0, -400), Ben Stiller, (300, 300), Matt Damon, (-550, -100), Ryan Reynolds, (550, -100), George Clooney, [-218.  303.], 1, 1.3506955000339076
sub-12, trial1, 10, Keanu Reeves, ID10_IM04.bmp, (0, -400), Ben Stiller, (300, 300), Ryan Reynolds, (-300, 300), Elijah Wood, (-550, -100), Patrick Dempsey, (550, -100), familiar face, [  86. -109.], 1, 3.006924199988134
sub-12, trial3, 06, Elijah Wood, ID06_IM01.bmp, (0, -400), Robert Downey Jr, (300, 300), Daniel Craig, (550, -100), Patrick Dempsey, (-550, -100), Robert Pattinson, (-300, 300), Elijah Wood, [  96. -383.], 1, 2.8210671999840997
sub-12, trial56, 09, Justin Timberlake, ID09_IM03.bmp, (-550, -100), Ryan Reynolds, (300, 300), Keanu Reeves, (0, -400), Ben Affleck, (-300, 300), Daniel Craig, (550, -100), Justin Timberlake, [-509.  -98.], 1, 1.337502900045365
sub-12, trial39, 14, Patrick Dempsey, ID14_IM01.bmp, (-300, 300), Brad Pitt, (300, 300), Ryan Gosling, (-550, -100), Hugh Jackman, (550, -100), Keanu Reeves, (0, -400), Patrick Dempsey, [-224.  317.], 1, 1.88167929998599
sub-12, trial27, 11, Leonardo DiCaprio, ID11_IM03.bmp, (-550, -100), Ryan Reynolds, (550, -100), Orlando Bloom, (0, -400), Robert Pattinson, (300, 300), Ben Affleck, (-300, 300), Leonardo DiCaprio, [-475. -119.], 1, 1.4283509999513626
sub-12, trial11, 01, Ben Affleck, ID01_IM01.bmp, (-550, -100), Brad Pitt, (550, -100), Patrick Dempsey, (-300, 300), Hugh Jackman, (300, 300), Ryan Reynolds, (0, -400), Ben Affleck, [-465. -120.], 1, 2.7380801999825053
sub-12, trial35, 01, Ben Affleck, ID01_IM03.bmp, (300, 300), Orlando Bloom, (-550, -100), Brad Pitt, (0, -400), Elijah Wood, (-300, 300), Matt Damon, (550, -100), Ben Affleck, [284. 270.], 1, 2.217799499980174
sub-12, trial58, 04, Daniel Craig, ID04_IM01.bmp, (-550, -100), Ben Stiller, (550, -100), Orlando Bloom, (300, 300), Robert Pattinson, (0, -400), Keanu Reeves, (-300, 300), Daniel Craig, [-516.  -81.], 1, 2.1028902000398375
sub-12, trial41, 13, Orlando Bloom, ID13_IM03.bmp, (0, -400), Daniel Craig, (550, -100), Brad Pitt, (300, 300), Hugh Jackman, (-550, -100), Justin Timberlake, (-300, 300), familiar face, [  40. -143.], 1, 3.0566697000176646
sub-12, trial8, 08, Hugh Jackman, ID08_IM04.bmp, (550, -100), Ben Affleck, (-550, -100), Robert Pattinson, (0, -400), Ryan Gosling, (-300, 300), George Clooney, (300, 300), Hugh Jackman, [489. -98.], 1, 2.4440033999853767
sub-12, trial16, 02, Ben Stiller, ID02_IM03.bmp, (550, -100), Patrick Dempsey, (0, -400), Elijah Wood, (-300, 300), Brad Pitt, (300, 300), Matt Damon, (-550, -100), Ben Stiller, [461. -97.], 1, 1.5118570000049658
sub-12, trial47, 07, George Clooney, ID07_IM02.bmp, (-300, 300), Justin Timberlake, (0, -400), Ryan Reynolds, (550, -100), Robert Downey Jr, (-550, -100), Ben Affleck, (300, 300), George Clooney, [-284.  315.], 1, 1.0655575999990106
sub-12, trial51, 02, Ben Stiller, ID02_IM04.bmp, (300, 300), Orlando Bloom, (550, -100), Ryan Reynolds, (-300, 300), Patrick Dempsey, (0, -400), Robert Pattinson, (-550, -100), familiar face, [  49. -104.], 1, 3.8281169999972917
sub-12, trial46, 18, Ryan Reynolds, ID18_IM02.bmp, (-300, 300), George Clooney, (0, -400), Justin Timberlake, (-550, -100), Leonardo DiCaprio, (550, -100), Keanu Reeves, (300, 300), Ryan Reynolds, [-199.  314.], 1, 1.5771688999957405
sub-12, trial34, 13, Orlando Bloom, ID13_IM02.bmp, (-550, -100), Brad Pitt, (300, 300), Daniel Radcliffe, (-300, 300), Hugh Jackman, (0, -400), Ben Stiller, (550, -100), Orlando Bloom, [-522. -113.], 1, 2.167862400005106
sub-12, trial50, 11, Leonardo DiCaprio, ID11_IM04.bmp, (300, 300), Keanu Reeves, (0, -400), George Clooney, (-550, -100), Daniel Radcliffe, (550, -100), Ryan Gosling, (-300, 300), Leonardo DiCaprio, [236. 285.], 1, 1.4949650000198744
sub-12, trial62, 07, George Clooney, ID07_IM03.bmp, (-300, 300), Ben Affleck, (300, 300), Robert Pattinson, (0, -400), Elijah Wood, (-550, -100), Ryan Reynolds, (550, -100), George Clooney, [-330.  282.], 1, 0.9460691999993287
sub-12, trial61, 06, Elijah Wood, ID06_IM04.bmp, (0, -400), Justin Timberlake, (550, -100), Robert Pattinson, (-300, 300), George Clooney, (300, 300), Daniel Radcliffe, (-550, -100), familiar face, [  30. -128.], 1, 2.289454600017052
sub-12, trial59, 17, Ryan Gosling, ID17_IM01.bmp, (-300, 300), Daniel Craig, (300, 300), Orlando Bloom, (550, -100), Ryan Reynolds, (0, -400), Brad Pitt, (-550, -100), Ryan Reynolds, [ 114. -417.], 0, 4.539459199993871
sub-12, trial55, 05, Daniel Radcliffe, ID05_IM02.bmp, (300, 300), Ryan Reynolds, (0, -400), Orlando Bloom, (-300, 300), Brad Pitt, (-550, -100), Justin Timberlake, (550, -100), Daniel Radcliffe, [351. 280.], 1, 1.5644507000106387
sub-12, trial9, 08, Hugh Jackman, ID08_IM03.bmp, (-550, -100), Ben Affleck, (550, -100), Daniel Radcliffe, (300, 300), Patrick Dempsey, (-300, 300), Justin Timberlake, (0, -400), Hugh Jackman, [-524.  -85.], 1, 2.748349000001326
sub-12, trial24, 18, Ryan Reynolds, ID18_IM01.bmp, (0, -400), Daniel Radcliffe, (-550, -100), George Clooney, (550, -100), Elijah Wood, (300, 300), Ben Stiller, (-300, 300), Ryan Reynolds, [  33. -393.], 1, 2.428025799978059
sub-12, trial65, 07, George Clooney, ID07_IM04.bmp, (300, 300), Matt Damon, (550, -100), Daniel Radcliffe, (-300, 300), Daniel Craig, (0, -400), Patrick Dempsey, (-550, -100), George Clooney, [321. 308.], 1, 1.4241206999868155
sub-12, trial12, 18, Ryan Reynolds, ID18_IM03.bmp, (550, -100), Brad Pitt, (300, 300), Matt Damon, (-300, 300), Patrick Dempsey, (-550, -100), Keanu Reeves, (0, -400), Ryan Reynolds, [ 608. -130.], 1, 2.2783119999803603
sub-12, trial10, 14, Patrick Dempsey, ID14_IM04.bmp, (-550, -100), Leonardo DiCaprio, (-300, 300), Ryan Reynolds, (550, -100), Brad Pitt, (0, -400), Robert Downey Jr, (300, 300), Patrick Dempsey, [-445. -117.], 1, 1.3930709999985993
sub-12, trial72, 03, Brad Pitt, ID03_IM02.bmp, (-550, -100), Ben Stiller, (0, -400), Orlando Bloom, (300, 300), Keanu Reeves, (-300, 300), Ryan Reynolds, (550, -100), Brad Pitt, [-445. -117.], 1, 0.6121251999866217
sub-12, trial60, 11, Leonardo DiCaprio, ID11_IM01.bmp, (0, -400), Orlando Bloom, (-300, 300), Hugh Jackman, (300, 300), Matt Damon, (550, -100), Keanu Reeves, (-550, -100), Leonardo DiCaprio, [ 128. -382.], 1, 1.7963260000105947
sub-12, trial14, 03, Brad Pitt, ID03_IM04.bmp, (-300, 300), Orlando Bloom, (550, -100), Robert Downey Jr, (300, 300), Robert Pattinson, (0, -400), Matt Damon, (-550, -100), Brad Pitt, [-166.  317.], 1, 2.849227999977302
sub-12, trial53, 10, Keanu Reeves, ID10_IM03.bmp, (-300, 300), Leonardo DiCaprio, (0, -400), Robert Pattinson, (550, -100), Elijah Wood, (-550, -100), Ryan Gosling, (300, 300), Keanu Reeves, [-190.  301.], 1, 2.1011147999670357
sub-12, trial28, 13, Orlando Bloom, ID13_IM01.bmp, (550, -100), Ben Stiller, (-300, 300), Keanu Reeves, (0, -400), Brad Pitt, (300, 300), Ryan Gosling, (-550, -100), Orlando Bloom, [ 552. -122.], 1, 2.270719599968288
sub-12, trial40, 10, Keanu Reeves, ID10_IM02.bmp, (-300, 300), Ben Affleck, (0, -400), Leonardo DiCaprio, (-550, -100), Patrick Dempsey, (300, 300), Ben Stiller, (550, -100), Keanu Reeves, [-185.  291.], 1, 2.786450900021009
sub-12, trial25, 18, Ryan Reynolds, ID18_IM04.bmp, (0, -400), Ryan Gosling, (-550, -100), Patrick Dempsey, (300, 300), Hugh Jackman, (-300, 300), Brad Pitt, (550, -100), Ryan Reynolds, [  73. -415.], 1, 2.815513400011696
sub-12, trial20, 17, Ryan Gosling, ID17_IM04.bmp, (300, 300), Leonardo DiCaprio, (-550, -100), Matt Damon, (550, -100), Orlando Bloom, (0, -400), Ben Stiller, (-300, 300), Ryan Gosling, [373. 285.], 1, 1.99646739999298
sub-12, trial52, 05, Daniel Radcliffe, ID05_IM03.bmp, (-300, 300), Leonardo DiCaprio, (300, 300), Hugh Jackman, (-550, -100), George Clooney, (550, -100), Ryan Gosling, (0, -400), Daniel Radcliffe, [-218.  281.], 1, 0.9883405999862589
sub-12, trial18, 15, Robert Downey Jr, ID15_IM03.bmp, (0, -400), Daniel Craig, (-300, 300), Matt Damon, (300, 300), George Clooney, (550, -100), Orlando Bloom, (-550, -100), Robert Downey Jr, [ 100. -400.], 1, 2.209422399988398
sub-12, trial43, 12, Matt Damon, ID12_IM02.bmp, (550, -100), Orlando Bloom, (-300, 300), Patrick Dempsey, (0, -400), Daniel Craig, (-550, -100), Elijah Wood, (300, 300), Matt Damon, [ 548. -109.], 1, 1.518890100007411
sub-12, trial26, 15, Robert Downey Jr, ID15_IM02.bmp, (550, -100), Keanu Reeves, (-550, -100), George Clooney, (300, 300), Brad Pitt, (0, -400), Matt Damon, (-300, 300), Robert Downey Jr, [ 547. -109.], 1, 1.6560011000256054
sub-12, trial48, 06, Elijah Wood, ID06_IM02.bmp, (-550, -100), Ryan Reynolds, (550, -100), Justin Timberlake, (300, 300), Matt Damon, (0, -400), Brad Pitt, (-300, 300), Elijah Wood, [-479.  -97.], 1, 2.348686599987559
sub-12, trial4, 11, Leonardo DiCaprio, ID11_IM02.bmp, (-300, 300), Keanu Reeves, (550, -100), Ben Stiller, (0, -400), Daniel Radcliffe, (300, 300), Ryan Gosling, (-550, -100), Leonardo DiCaprio, [-272.  320.], 1, 1.5720823000301607
sub-12, trial36, 15, Robert Downey Jr, ID15_IM01.bmp, (0, -400), George Clooney, (-300, 300), Leonardo DiCaprio, (550, -100), Patrick Dempsey, (-550, -100), Elijah Wood, (300, 300), Robert Downey Jr, [ -77. -390.], 1, 2.2513176999636926
sub-12, trial71, 03, Brad Pitt, ID03_IM03.bmp, (300, 300), Daniel Radcliffe, (0, -400), Ryan Gosling, (-550, -100), Orlando Bloom, (550, -100), Keanu Reeves, (-300, 300), Brad Pitt, [272. 303.], 1, 2.247157800011337
sub-12, trial19, 04, Daniel Craig, ID04_IM03.bmp, (300, 300), Patrick Dempsey, (-550, -100), Hugh Jackman, (-300, 300), Keanu Reeves, (550, -100), Ryan Gosling, (0, -400), Daniel Craig, [314. 265.], 1, 1.267037599987816
sub-12, trial67, 12, Matt Damon, ID12_IM03.bmp, (-550, -100), Justin Timberlake, (0, -400), Elijah Wood, (-300, 300), Patrick Dempsey, (550, -100), Robert Downey Jr, (300, 300), Matt Damon, [-530. -108.], 1, 1.7264864000026137
sub-12, trial15, 16, Robert Pattinson, ID16_IM02.bmp, (0, -400), Justin Timberlake, (300, 300), Ben Stiller, (550, -100), Daniel Radcliffe, (-300, 300), Leonardo DiCaprio, (-550, -100), Robert Pattinson, [ -17. -391.], 1, 1.7830670999828726
sub-12, trial13, 12, Matt Damon, ID12_IM01.bmp, (300, 300), Orlando Bloom, (-300, 300), Robert Pattinson, (-550, -100), Ben Affleck, (0, -400), Justin Timberlake, (550, -100), Matt Damon, [299. 295.], 1, 2.4856669000000693
sub-12, trial22, 06, Elijah Wood, ID06_IM03.bmp, (300, 300), Keanu Reeves, (550, -100), Ben Stiller, (-550, -100), Ryan Reynolds, (0, -400), Robert Downey Jr, (-300, 300), Elijah Wood, [294. 282.], 1, 3.5369942000252195
