subject,trial,celeb_id,celeb_name,celeb_image,celeb_position,rand0_name,rand0_pos,rand1_name,rand1_pos,rand2_name,rand2_pos,rand3_name,rand3_pos,answer_celeb,answer_position,correct,rt
sub-16, trial4, 14, Patrick Dempsey, ID14_IM01.bmp, (-550, -100), Hugh Jackman, (550, -100), Ryan Reynolds, (-300, 300), Robert Downey Jr, (0, -400), Ben Affleck, (300, 300), Patrick Dempsey, [-441. -107.], 1, 2.77914979995694
sub-16, trial8, 11, Leonardo DiCaprio, ID11_IM02.bmp, (0, -400), George Clooney, (-550, -100), Orlando Bloom, (550, -100), Daniel Craig, (-300, 300), Daniel Radcliffe, (300, 300), Leonardo DiCaprio, [  23. -420.], 1, 2.8654361999360844
sub-16, trial70, 18, Ryan Reynolds, ID18_IM04.bmp, (300, 300), Matt Damon, (0, -400), Ryan Gosling, (-550, -100), Robert Pattinson, (-300, 300), Elijah Wood, (550, -100), Ryan Reynolds, [234. 301.], 1, 2.549203599919565
sub-16, trial27, 17, Ryan Gosling, ID17_IM04.bmp, (550, -100), Ryan Reynolds, (0, -400), Hugh Jackman, (-300, 300), Elijah Wood, (-550, -100), George Clooney, (300, 300), idk, [-96.  56.], 0, 8.22831589996349
sub-16, trial24, 12, Matt Damon, ID12_IM01.bmp, (-550, -100), Elijah Wood, (550, -100), Patrick Dempsey, (300, 300), Robert Pattinson, (-300, 300), Ben Affleck, (0, -400), familiar face, [ 84. -98.], 1, 6.505230300012045
sub-16, trial44, 07, George Clooney, ID07_IM02.bmp, (0, -400), Robert Downey Jr, (300, 300), Keanu Reeves, (-300, 300), Matt Damon, (550, -100), Ryan Reynolds, (-550, -100), George Clooney, [ 105. -371.], 1, 2.379158900002949
sub-16, trial48, 18, Ryan Reynolds, ID18_IM02.bmp, (300, 300), George Clooney, (-300, 300), Ben Affleck, (-550, -100), Ben Stiller, (550, -100), Robert Downey Jr, (0, -400), Ryan Reynolds, [280. 278.], 1, 1.5544221000745893
sub-16, trial60, 08, Hugh Jackman, ID08_IM03.bmp, (-550, -100), Robert Downey Jr, (550, -100), Ben Stiller, (0, -400), Elijah Wood, (300, 300), Ryan Reynolds, (-300, 300), familiar face, [  92. -113.], 1, 2.488998999935575
sub-16, trial58, 12, Matt Damon, ID12_IM04.bmp, (0, -400), Ryan Gosling, (-550, -100), Keanu Reeves, (-300, 300), Hugh Jackman, (550, -100), Robert Downey Jr, (300, 300), familiar face, [  87. -120.], 1, 3.2847131000598893
sub-16, trial56, 05, Daniel Radcliffe, ID05_IM01.bmp, (0, -400), Ryan Reynolds, (300, 300), Justin Timberlake, (-300, 300), Robert Pattinson, (-550, -100), Ben Stiller, (550, -100), Daniel Radcliffe, [ 115. -400.], 1, 2.0782329000066966
sub-16, trial33, 11, Leonardo DiCaprio, ID11_IM03.bmp, (0, -400), Orlando Bloom, (300, 300), Justin Timberlake, (-300, 300), Robert Downey Jr, (-550, -100), Ryan Gosling, (550, -100), Leonardo DiCaprio, [ 128. -360.], 1, 2.3457031999714673
sub-16, trial35, 17, Ryan Gosling, ID17_IM03.bmp, (-300, 300), Robert Pattinson, (-550, -100), Daniel Radcliffe, (300, 300), Brad Pitt, (550, -100), Leonardo DiCaprio, (0, -400), Ryan Gosling, [-170.  273.], 1, 4.304770299931988
sub-16, trial41, 08, Hugh Jackman, ID08_IM02.bmp, (-550, -100), Brad Pitt, (300, 300), Matt Damon, (-300, 300), George Clooney, (550, -100), Ryan Reynolds, (0, -400), familiar face, [ 46. -98.], 1, 2.0506013999693096
sub-16, trial15, 09, Justin Timberlake, ID09_IM04.bmp, (-300, 300), Orlando Bloom, (0, -400), George Clooney, (-550, -100), Keanu Reeves, (300, 300), Elijah Wood, (550, -100), Justin Timberlake, [-189.  304.], 1, 1.7584111999021843
sub-16, trial45, 05, Daniel Radcliffe, ID05_IM02.bmp, (0, -400), Daniel Craig, (-550, -100), Ryan Reynolds, (-300, 300), Matt Damon, (550, -100), Robert Downey Jr, (300, 300), Daniel Radcliffe, [-110. -394.], 1, 2.3971698000095785
sub-16, trial29, 06, Elijah Wood, ID06_IM04.bmp, (-300, 300), Robert Pattinson, (550, -100), Robert Downey Jr, (0, -400), Ryan Reynolds, (300, 300), George Clooney, (-550, -100), familiar face, [-30. -98.], 1, 2.1640565000707284
sub-16, trial43, 04, Daniel Craig, ID04_IM04.bmp, (0, -400), Justin Timberlake, (300, 300), Matt Damon, (550, -100), Ben Stiller, (-300, 300), George Clooney, (-550, -100), Daniel Craig, [  30. -405.], 1, 5.442897600005381
sub-16, trial62, 16, Robert Pattinson, ID16_IM01.bmp, (-300, 300), Brad Pitt, (-550, -100), Elijah Wood, (300, 300), Leonardo DiCaprio, (0, -400), Daniel Craig, (550, -100), Robert Pattinson, [-251.  302.], 1, 3.6789794999640435
sub-16, trial72, 15, Robert Downey Jr, ID15_IM03.bmp, (300, 300), Daniel Radcliffe, (0, -400), Ryan Reynolds, (550, -100), Ben Stiller, (-300, 300), Daniel Craig, (-550, -100), Robert Downey Jr, [236. 310.], 1, 4.073161599924788
sub-16, trial66, 16, Robert Pattinson, ID16_IM02.bmp, (550, -100), Justin Timberlake, (0, -400), Ben Affleck, (-300, 300), Ben Stiller, (300, 300), Leonardo DiCaprio, (-550, -100), Robert Pattinson, [ 501. -115.], 1, 2.5174739999929443
sub-16, trial39, 01, Ben Affleck, ID01_IM01.bmp, (550, -100), Ryan Reynolds, (-550, -100), Patrick Dempsey, (0, -400), Daniel Radcliffe, (300, 300), Robert Downey Jr, (-300, 300), familiar face, [164. -84.], 1, 2.0622312000487
sub-16, trial5, 18, Ryan Reynolds, ID18_IM03.bmp, (-550, -100), Patrick Dempsey, (300, 300), Ben Stiller, (0, -400), Justin Timberlake, (-300, 300), Daniel Radcliffe, (550, -100), Ryan Reynolds, [-423.  -93.], 1, 3.450182400061749
sub-16, trial51, 11, Leonardo DiCaprio, ID11_IM04.bmp, (300, 300), George Clooney, (-300, 300), Ben Affleck, (550, -100), Hugh Jackman, (-550, -100), Ryan Reynolds, (0, -400), Leonardo DiCaprio, [285. 270.], 1, 2.3811562000773847
sub-16, trial64, 09, Justin Timberlake, ID09_IM01.bmp, (300, 300), Orlando Bloom, (550, -100), Patrick Dempsey, (-550, -100), Ryan Reynolds, (0, -400), Daniel Craig, (-300, 300), Justin Timberlake, [194. 312.], 1, 1.6441858999896795
sub-16, trial6, 10, Keanu Reeves, ID10_IM03.bmp, (300, 300), Ryan Reynolds, (550, -100), Ben Affleck, (-550, -100), Justin Timberlake, (0, -400), Daniel Radcliffe, (-300, 300), Keanu Reeves, [247. 271.], 1, 5.872400899999775
sub-16, trial13, 10, Keanu Reeves, ID10_IM04.bmp, (-300, 300), Ryan Gosling, (0, -400), George Clooney, (-550, -100), Robert Pattinson, (550, -100), Daniel Radcliffe, (300, 300), Keanu Reeves, [-171.  308.], 1, 1.6917167999781668
sub-16, trial28, 14, Patrick Dempsey, ID14_IM02.bmp, (-550, -100), Justin Timberlake, (300, 300), Robert Downey Jr, (0, -400), Hugh Jackman, (-300, 300), Ryan Gosling, (550, -100), Patrick Dempsey, [-475.  -92.], 1, 1.5260709999129176
sub-16, trial31, 11, Leonardo DiCaprio, ID11_IM01.bmp, (550, -100), Ben Stiller, (-300, 300), Elijah Wood, (0, -400), Daniel Craig, (-550, -100), Hugh Jackman, (300, 300), Leonardo DiCaprio, [401. -83.], 1, 2.2711032999213785
sub-16, trial63, 10, Keanu Reeves, ID10_IM02.bmp, (0, -400), Hugh Jackman, (300, 300), Matt Damon, (-300, 300), Brad Pitt, (-550, -100), Leonardo DiCaprio, (550, -100), Keanu Reeves, [  80. -403.], 1, 4.594252500100993
sub-16, trial34, 10, Keanu Reeves, ID10_IM01.bmp, (-550, -100), Hugh Jackman, (550, -100), Daniel Radcliffe, (300, 300), Ryan Gosling, (0, -400), Leonardo DiCaprio, (-300, 300), familiar face, [  89. -136.], 1, 2.567587000085041
sub-16, trial19, 03, Brad Pitt, ID03_IM02.bmp, (-550, -100), Daniel Craig, (-300, 300), Leonardo DiCaprio, (550, -100), Ryan Gosling, (300, 300), Ben Stiller, (0, -400), Brad Pitt, [-439. -120.], 1, 4.8637701000552624
sub-16, trial32, 09, Justin Timberlake, ID09_IM03.bmp, (300, 300), Matt Damon, (-550, -100), Ryan Gosling, (550, -100), Robert Downey Jr, (-300, 300), Hugh Jackman, (0, -400), Justin Timberlake, [371. 263.], 1, 2.5308451000601053
sub-16, trial68, 13, Orlando Bloom, ID13_IM03.bmp, (550, -100), George Clooney, (-300, 300), Daniel Craig, (0, -400), Patrick Dempsey, (300, 300), Ryan Reynolds, (-550, -100), Orlando Bloom, [460. -85.], 1, 2.2271416999865323
sub-16, trial30, 16, Robert Pattinson, ID16_IM04.bmp, (300, 300), Ben Affleck, (-300, 300), Ben Stiller, (0, -400), Patrick Dempsey, (550, -100), Ryan Gosling, (-550, -100), Robert Pattinson, [270. 295.], 1, 2.9596846000058576
sub-16, trial67, 01, Ben Affleck, ID01_IM02.bmp, (300, 300), Robert Downey Jr, (0, -400), Leonardo DiCaprio, (550, -100), George Clooney, (-550, -100), Ryan Gosling, (-300, 300), familiar face, [ 33. -98.], 1, 1.887165499967523
sub-16, trial3, 15, Robert Downey Jr, ID15_IM02.bmp, (-300, 300), Daniel Craig, (550, -100), George Clooney, (0, -400), Elijah Wood, (300, 300), Ryan Gosling, (-550, -100), Robert Downey Jr, [-227.  295.], 1, 2.273942400002852
sub-16, trial9, 04, Daniel Craig, ID04_IM01.bmp, (-300, 300), Ryan Reynolds, (300, 300), Robert Downey Jr, (-550, -100), Hugh Jackman, (0, -400), George Clooney, (550, -100), Daniel Craig, [-242.  271.], 1, 7.7802045999560505
sub-16, trial55, 13, Orlando Bloom, ID13_IM02.bmp, (-550, -100), Matt Damon, (-300, 300), Ryan Gosling, (0, -400), Ryan Reynolds, (550, -100), Daniel Radcliffe, (300, 300), Orlando Bloom, [-435.  -88.], 1, 0.9709316999651492
sub-16, trial22, 04, Daniel Craig, ID04_IM02.bmp, (300, 300), Matt Damon, (0, -400), Justin Timberlake, (550, -100), Leonardo DiCaprio, (-550, -100), Ben Affleck, (-300, 300), Daniel Craig, [253. 282.], 1, 4.834143599960953
sub-16, trial36, 18, Ryan Reynolds, ID18_IM01.bmp, (550, -100), Ben Affleck, (-300, 300), Orlando Bloom, (0, -400), Elijah Wood, (300, 300), Robert Downey Jr, (-550, -100), Ryan Reynolds, [538. -78.], 1, 1.4141238000011072
sub-16, trial47, 05, Daniel Radcliffe, ID05_IM03.bmp, (300, 300), Orlando Bloom, (-550, -100), Robert Pattinson, (-300, 300), Daniel Craig, (550, -100), Matt Damon, (0, -400), Daniel Radcliffe, [310. 286.], 1, 1.459182299906388
sub-16, trial14, 03, Brad Pitt, ID03_IM03.bmp, (0, -400), Ben Affleck, (300, 300), George Clooney, (-300, 300), Ryan Reynolds, (550, -100), Matt Damon, (-550, -100), Brad Pitt, [ 155. -362.], 1, 1.8790060000028461
sub-16, trial52, 13, Orlando Bloom, ID13_IM01.bmp, (-300, 300), Robert Pattinson, (300, 300), Elijah Wood, (550, -100), Leonardo DiCaprio, (-550, -100), Ben Stiller, (0, -400), Orlando Bloom, [-189.  291.], 1, 1.4336741000879556
sub-16, trial65, 06, Elijah Wood, ID06_IM01.bmp, (300, 300), Daniel Craig, (-300, 300), Ryan Reynolds, (550, -100), Patrick Dempsey, (-550, -100), Justin Timberlake, (0, -400), familiar face, [  81. -103.], 1, 2.7740309999790043
sub-16, trial71, 13, Orlando Bloom, ID13_IM04.bmp, (-300, 300), Ben Affleck, (300, 300), Ryan Reynolds, (-550, -100), Patrick Dempsey, (550, -100), Robert Downey Jr, (0, -400), Orlando Bloom, [-206.  331.], 1, 3.5102234000805765
sub-16, trial1, 08, Hugh Jackman, ID08_IM01.bmp, (550, -100), Matt Damon, (-300, 300), Justin Timberlake, (0, -400), Ryan Reynolds, (-550, -100), Robert Downey Jr, (300, 300), familiar face, [ 57. -93.], 1, 1.0715167000889778
sub-16, trial21, 07, George Clooney, ID07_IM01.bmp, (550, -100), Orlando Bloom, (0, -400), Ryan Reynolds, (300, 300), Patrick Dempsey, (-550, -100), Robert Downey Jr, (-300, 300), George Clooney, [411. -84.], 1, 1.089518699911423
sub-16, trial42, 05, Daniel Radcliffe, ID05_IM04.bmp, (-550, -100), Robert Downey Jr, (300, 300), Hugh Jackman, (-300, 300), Ben Stiller, (550, -100), Ryan Gosling, (0, -400), Daniel Radcliffe, [-543. -110.], 1, 2.4995973999612033
sub-16, trial12, 07, George Clooney, ID07_IM04.bmp, (-550, -100), Brad Pitt, (550, -100), Matt Damon, (0, -400), Daniel Craig, (-300, 300), Ben Stiller, (300, 300), George Clooney, [-486.  -99.], 1, 1.093938900041394
sub-16, trial57, 17, Ryan Gosling, ID17_IM01.bmp, (300, 300), Robert Downey Jr, (0, -400), Daniel Radcliffe, (-300, 300), Ryan Reynolds, (-550, -100), Hugh Jackman, (550, -100), Ryan Reynolds, [-439.  -91.], 0, 1.5123616999480873
sub-16, trial26, 06, Elijah Wood, ID06_IM02.bmp, (-550, -100), Patrick Dempsey, (-300, 300), Robert Downey Jr, (0, -400), Hugh Jackman, (550, -100), Brad Pitt, (300, 300), familiar face, [-119.  -84.], 1, 2.234772099996917
sub-16, trial11, 02, Ben Stiller, ID02_IM03.bmp, (-550, -100), Hugh Jackman, (550, -100), Justin Timberlake, (300, 300), Matt Damon, (0, -400), Ryan Gosling, (-300, 300), familiar face, [ 41. -94.], 1, 3.630387800047174
sub-16, trial20, 06, Elijah Wood, ID06_IM03.bmp, (0, -400), Brad Pitt, (-550, -100), Robert Downey Jr, (550, -100), Ryan Reynolds, (-300, 300), Robert Pattinson, (300, 300), familiar face, [ 41. -93.], 1, 1.355596600100398
sub-16, trial38, 09, Justin Timberlake, ID09_IM02.bmp, (300, 300), Ryan Gosling, (-300, 300), Elijah Wood, (0, -400), Robert Downey Jr, (550, -100), Matt Damon, (-550, -100), Justin Timberlake, [259. 316.], 1, 1.4587776000844315
sub-16, trial40, 15, Robert Downey Jr, ID15_IM01.bmp, (-550, -100), Justin Timberlake, (550, -100), George Clooney, (300, 300), Ben Affleck, (-300, 300), Patrick Dempsey, (0, -400), Robert Downey Jr, [-398.  -71.], 1, 2.854875500081107
sub-16, trial69, 17, Ryan Gosling, ID17_IM02.bmp, (300, 300), George Clooney, (0, -400), Ben Stiller, (550, -100), Elijah Wood, (-300, 300), Leonardo DiCaprio, (-550, -100), Ryan Gosling, [191. 302.], 1, 4.146237499895506
sub-16, trial37, 08, Hugh Jackman, ID08_IM04.bmp, (-300, 300), Keanu Reeves, (-550, -100), Patrick Dempsey, (550, -100), Daniel Craig, (300, 300), Ben Stiller, (0, -400), familiar face, [ 37. -97.], 1, 5.738184900023043
sub-16, trial17, 01, Ben Affleck, ID01_IM03.bmp, (0, -400), Keanu Reeves, (300, 300), Justin Timberlake, (-550, -100), Brad Pitt, (550, -100), Elijah Wood, (-300, 300), familiar face, [  36. -105.], 1, 0.8429039000766352
sub-16, trial49, 14, Patrick Dempsey, ID14_IM03.bmp, (550, -100), Ben Stiller, (-300, 300), Brad Pitt, (-550, -100), Orlando Bloom, (0, -400), Justin Timberlake, (300, 300), Patrick Dempsey, [431. -79.], 1, 1.3909949999069795
sub-16, trial10, 02, Ben Stiller, ID02_IM01.bmp, (0, -400), Ryan Gosling, (-550, -100), Matt Damon, (550, -100), Robert Pattinson, (-300, 300), Justin Timberlake, (300, 300), familiar face, [ -4. -99.], 1, 3.741838000016287
sub-16, trial18, 02, Ben Stiller, ID02_IM04.bmp, (0, -400), Patrick Dempsey, (-300, 300), Keanu Reeves, (-550, -100), Daniel Radcliffe, (550, -100), Orlando Bloom, (300, 300), familiar face, [   4. -102.], 1, 0.6618222000543028
sub-16, trial2, 16, Robert Pattinson, ID16_IM03.bmp, (550, -100), George Clooney, (0, -400), Brad Pitt, (-550, -100), Ben Stiller, (300, 300), Patrick Dempsey, (-300, 300), Robert Pattinson, [433. -58.], 1, 1.9768852000124753
sub-16, trial16, 12, Matt Damon, ID12_IM02.bmp, (-550, -100), George Clooney, (550, -100), Leonardo DiCaprio, (300, 300), Orlando Bloom, (0, -400), Elijah Wood, (-300, 300), familiar face, [ 85. -72.], 1, 1.152103199972771
sub-16, trial46, 12, Matt Damon, ID12_IM03.bmp, (-550, -100), Elijah Wood, (0, -400), Brad Pitt, (-300, 300), Daniel Craig, (550, -100), Orlando Bloom, (300, 300), familiar face, [  62. -103.], 1, 0.6156506000552326
sub-16, trial25, 07, George Clooney, ID07_IM03.bmp, (-550, -100), Daniel Craig, (0, -400), Daniel Radcliffe, (300, 300), Ryan Reynolds, (550, -100), Matt Damon, (-300, 300), George Clooney, [-525.  -91.], 1, 0.8767051000613719
sub-16, trial53, 01, Ben Affleck, ID01_IM04.bmp, (300, 300), Matt Damon, (0, -400), Orlando Bloom, (-550, -100), Elijah Wood, (-300, 300), Keanu Reeves, (550, -100), familiar face, [-135.  -88.], 1, 0.9356642999919131
sub-16, trial54, 02, Ben Stiller, ID02_IM02.bmp, (300, 300), Daniel Radcliffe, (550, -100), Justin Timberlake, (-550, -100), Ryan Reynolds, (-300, 300), Leonardo DiCaprio, (0, -400), familiar face, [ -94. -102.], 1, 1.1920670999679714
sub-16, trial7, 03, Brad Pitt, ID03_IM01.bmp, (550, -100), Robert Pattinson, (-300, 300), Orlando Bloom, (-550, -100), Hugh Jackman, (0, -400), George Clooney, (300, 300), Brad Pitt, [ 412. -113.], 1, 2.1421618999447674
sub-16, trial50, 15, Robert Downey Jr, ID15_IM04.bmp, (-300, 300), Leonardo DiCaprio, (-550, -100), Daniel Radcliffe, (0, -400), Brad Pitt, (550, -100), George Clooney, (300, 300), Robert Downey Jr, [-188.  310.], 1, 3.054394799983129
sub-16, trial23, 04, Daniel Craig, ID04_IM03.bmp, (0, -400), Keanu Reeves, (550, -100), Robert Downey Jr, (-550, -100), Ryan Gosling, (-300, 300), Hugh Jackman, (300, 300), Keanu Reeves, [ 497. -124.], 0, 5.946044399985112
sub-16, trial61, 03, Brad Pitt, ID03_IM04.bmp, (550, -100), Elijah Wood, (-550, -100), Robert Downey Jr, (0, -400), Daniel Craig, (300, 300), Ryan Gosling, (-300, 300), Brad Pitt, [ 460. -105.], 1, 4.5013877999736
sub-16, trial59, 14, Patrick Dempsey, ID14_IM04.bmp, (0, -400), Robert Pattinson, (-300, 300), Justin Timberlake, (300, 300), Brad Pitt, (550, -100), Ryan Reynolds, (-550, -100), Patrick Dempsey, [ 103. -360.], 1, 2.028088300023228
