subject,trial,celeb_id,celeb_name,celeb_image,celeb_position,rand0_name,rand0_pos,rand1_name,rand1_pos,rand2_name,rand2_pos,rand3_name,rand3_pos,answer_celeb,answer_position,correct,rt
sub-03, trial18, 13, Orlando Bloom, ID13_IM04.bmp, (-550, -100), Hugh Jackman, (0, -400), Daniel Radcliffe, (550, -100), Ryan Reynolds, (300, 300), Matt Damon, (-300, 300), Orlando Bloom, [-548. -111.], 1, 5.251385500072502
sub-03, trial26, 10, Keanu Reeves, ID10_IM04.bmp, (550, -100), Brad Pitt, (-550, -100), Ben Affleck, (0, -400), Justin Timberlake, (-300, 300), Daniel Craig, (300, 300), Keanu Reeves, [ 548. -109.], 1, 4.343226900091395
sub-03, trial47, 11, Leonardo DiCaprio, ID11_IM04.bmp, (-300, 300), Ben Affleck, (-550, -100), George Clooney, (550, -100), Ryan Reynolds, (300, 300), Daniel Craig, (0, -400), Leonardo DiCaprio, [-362.  301.], 1, 1.9511620999546722
sub-03, trial39, 09, Justin Timberlake, ID09_IM04.bmp, (300, 300), Leonardo DiCaprio, (-300, 300), George Clooney, (-550, -100), Orlando Bloom, (550, -100), Brad Pitt, (0, -400), Justin Timberlake, [215. 275.], 1, 1.038464399985969
sub-03, trial36, 17, Ryan Gosling, ID17_IM03.bmp, (0, -400), Orlando Bloom, (550, -100), Patrick Dempsey, (-300, 300), Ben Affleck, (-550, -100), George Clooney, (300, 300), Ben Affleck, [-465. -114.], 0, 1.3302598999580368
sub-03, trial28, 07, George Clooney, ID07_IM02.bmp, (550, -100), Brad Pitt, (300, 300), Matt Damon, (-550, -100), Ben Stiller, (0, -400), Robert Downey Jr, (-300, 300), George Clooney, [482. -96.], 1, 1.6428475000429899
sub-03, trial21, 08, Hugh Jackman, ID08_IM01.bmp, (-550, -100), Daniel Craig, (0, -400), Matt Damon, (550, -100), Ryan Gosling, (300, 300), Ben Affleck, (-300, 300), Matt Damon, [491. -70.], 0, 8.775406599976122
sub-03, trial29, 01, Ben Affleck, ID01_IM03.bmp, (300, 300), Keanu Reeves, (-550, -100), Ryan Gosling, (-300, 300), Elijah Wood, (550, -100), Justin Timberlake, (0, -400), idk, [-27.  54.], 0, 3.878543799975887
sub-03, trial31, 09, Justin Timberlake, ID09_IM01.bmp, (0, -400), George Clooney, (550, -100), Robert Pattinson, (300, 300), Daniel Craig, (-550, -100), Keanu Reeves, (-300, 300), Justin Timberlake, [  87. -402.], 1, 4.344485800014809
sub-03, trial19, 16, Robert Pattinson, ID16_IM02.bmp, (300, 300), Ben Affleck, (0, -400), Elijah Wood, (550, -100), Keanu Reeves, (-300, 300), Ryan Gosling, (-550, -100), Robert Pattinson, [313. 309.], 1, 2.7291295001050457
sub-03, trial13, 13, Orlando Bloom, ID13_IM02.bmp, (300, 300), Leonardo DiCaprio, (-550, -100), Robert Pattinson, (550, -100), Hugh Jackman, (-300, 300), Matt Damon, (0, -400), idk, [ 27. 106.], 0, 4.513939099968411
sub-03, trial23, 08, Hugh Jackman, ID08_IM04.bmp, (-550, -100), Ben Affleck, (300, 300), George Clooney, (0, -400), Brad Pitt, (-300, 300), Leonardo DiCaprio, (550, -100), idk, [88. 86.], 0, 6.0040257999207824
sub-03, trial44, 01, Ben Affleck, ID01_IM01.bmp, (-300, 300), Justin Timberlake, (-550, -100), Leonardo DiCaprio, (0, -400), Ryan Reynolds, (300, 300), George Clooney, (550, -100), idk, [88. 86.], 0, 4.583643199992366
sub-03, trial4, 05, Daniel Radcliffe, ID05_IM01.bmp, (-550, -100), George Clooney, (-300, 300), Robert Downey Jr, (550, -100), Hugh Jackman, (0, -400), Daniel Craig, (300, 300), Daniel Radcliffe, [-505.  -70.], 1, 3.5032514000777155
sub-03, trial43, 11, Leonardo DiCaprio, ID11_IM03.bmp, (-550, -100), Matt Damon, (-300, 300), Keanu Reeves, (0, -400), Daniel Radcliffe, (550, -100), Orlando Bloom, (300, 300), Leonardo DiCaprio, [-436. -120.], 1, 2.5611915999324992
sub-03, trial63, 07, George Clooney, ID07_IM03.bmp, (-300, 300), Patrick Dempsey, (-550, -100), Ryan Reynolds, (550, -100), Ryan Gosling, (300, 300), Ben Affleck, (0, -400), George Clooney, [-358.  291.], 1, 5.144273299956694
sub-03, trial3, 18, Ryan Reynolds, ID18_IM02.bmp, (0, -400), Brad Pitt, (300, 300), Hugh Jackman, (550, -100), George Clooney, (-550, -100), Justin Timberlake, (-300, 300), Ryan Reynolds, [ -45. -395.], 1, 4.871866300003603
sub-03, trial55, 10, Keanu Reeves, ID10_IM02.bmp, (-550, -100), Matt Damon, (300, 300), Ben Stiller, (0, -400), Justin Timberlake, (550, -100), Brad Pitt, (-300, 300), Keanu Reeves, [-475.  -75.], 1, 2.63563720008824
sub-03, trial15, 02, Ben Stiller, ID02_IM01.bmp, (-300, 300), Robert Downey Jr, (0, -400), Brad Pitt, (300, 300), Ben Affleck, (-550, -100), Patrick Dempsey, (550, -100), idk, [65. 46.], 0, 5.2878140999237075
sub-03, trial42, 15, Robert Downey Jr, ID15_IM01.bmp, (550, -100), Matt Damon, (-300, 300), Ryan Reynolds, (0, -400), Keanu Reeves, (-550, -100), Justin Timberlake, (300, 300), idk, [65. 46.], 0, 3.5121993999928236
sub-03, trial30, 05, Daniel Radcliffe, ID05_IM02.bmp, (550, -100), Hugh Jackman, (300, 300), Elijah Wood, (-550, -100), Ben Affleck, (-300, 300), Keanu Reeves, (0, -400), Daniel Radcliffe, [509. -83.], 1, 1.2033256998984143
sub-03, trial37, 12, Matt Damon, ID12_IM04.bmp, (550, -100), Leonardo DiCaprio, (0, -400), Ryan Gosling, (-300, 300), Ben Stiller, (-550, -100), Brad Pitt, (300, 300), idk, [24. 52.], 0, 3.601923100068234
sub-03, trial14, 10, Keanu Reeves, ID10_IM01.bmp, (-300, 300), Leonardo DiCaprio, (550, -100), Robert Downey Jr, (-550, -100), Patrick Dempsey, (0, -400), George Clooney, (300, 300), idk, [24. 52.], 0, 1.9729413000168279
sub-03, trial16, 13, Orlando Bloom, ID13_IM03.bmp, (300, 300), Ben Affleck, (550, -100), Elijah Wood, (0, -400), Leonardo DiCaprio, (-550, -100), Matt Damon, (-300, 300), Orlando Bloom, [279. 329.], 1, 0.8624820000259206
sub-03, trial20, 15, Robert Downey Jr, ID15_IM02.bmp, (-550, -100), Ryan Gosling, (550, -100), Leonardo DiCaprio, (300, 300), Daniel Craig, (0, -400), Ben Stiller, (-300, 300), idk, [66. 48.], 0, 2.485913300071843
sub-03, trial35, 03, Brad Pitt, ID03_IM01.bmp, (0, -400), George Clooney, (550, -100), Matt Damon, (-550, -100), Elijah Wood, (300, 300), Patrick Dempsey, (-300, 300), Brad Pitt, [ 106. -396.], 1, 3.843930699978955
sub-03, trial67, 17, Ryan Gosling, ID17_IM01.bmp, (-550, -100), Ben Affleck, (550, -100), Leonardo DiCaprio, (300, 300), Justin Timberlake, (0, -400), Hugh Jackman, (-300, 300), familiar face, [  56. -107.], 1, 5.703172100009397
sub-03, trial61, 06, Elijah Wood, ID06_IM02.bmp, (-300, 300), George Clooney, (0, -400), Justin Timberlake, (300, 300), Ryan Reynolds, (550, -100), Leonardo DiCaprio, (-550, -100), Elijah Wood, [-327.  268.], 1, 3.04039539990481
sub-03, trial11, 18, Ryan Reynolds, ID18_IM01.bmp, (550, -100), Daniel Craig, (-550, -100), Ryan Gosling, (0, -400), George Clooney, (-300, 300), Brad Pitt, (300, 300), idk, [-32.  90.], 0, 2.998390500084497
sub-03, trial72, 08, Hugh Jackman, ID08_IM02.bmp, (300, 300), Ryan Reynolds, (0, -400), Brad Pitt, (550, -100), Leonardo DiCaprio, (-300, 300), Justin Timberlake, (-550, -100), familiar face, [  90. -130.], 1, 6.0511236999882385
sub-03, trial34, 15, Robert Downey Jr, ID15_IM04.bmp, (-300, 300), Hugh Jackman, (-550, -100), Matt Damon, (300, 300), Keanu Reeves, (0, -400), Robert Pattinson, (550, -100), familiar face, [  96. -125.], 1, 2.392104000085965
sub-03, trial56, 03, Brad Pitt, ID03_IM04.bmp, (-550, -100), Orlando Bloom, (550, -100), Robert Downey Jr, (300, 300), Daniel Radcliffe, (-300, 300), Ryan Reynolds, (0, -400), Brad Pitt, [-432. -112.], 1, 2.8050739999162033
sub-03, trial54, 06, Elijah Wood, ID06_IM04.bmp, (-300, 300), Ben Affleck, (550, -100), Leonardo DiCaprio, (-550, -100), Robert Pattinson, (300, 300), Daniel Radcliffe, (0, -400), Elijah Wood, [-252.  284.], 1, 1.4828581999754533
sub-03, trial59, 16, Robert Pattinson, ID16_IM01.bmp, (300, 300), Brad Pitt, (0, -400), Patrick Dempsey, (550, -100), Ben Affleck, (-300, 300), Ryan Reynolds, (-550, -100), Robert Pattinson, [283. 306.], 1, 0.8452561000594869
sub-03, trial27, 09, Justin Timberlake, ID09_IM02.bmp, (-550, -100), Leonardo DiCaprio, (300, 300), Elijah Wood, (-300, 300), Matt Damon, (550, -100), Patrick Dempsey, (0, -400), Justin Timberlake, [-412. -103.], 1, 2.017417800030671
sub-03, trial46, 07, George Clooney, ID07_IM04.bmp, (0, -400), Brad Pitt, (550, -100), Patrick Dempsey, (-300, 300), Robert Pattinson, (300, 300), Ben Stiller, (-550, -100), George Clooney, [  41. -366.], 1, 2.1510264000389725
sub-03, trial5, 02, Ben Stiller, ID02_IM02.bmp, (0, -400), George Clooney, (-300, 300), Robert Downey Jr, (550, -100), Orlando Bloom, (300, 300), Daniel Craig, (-550, -100), Robert Downey Jr, [ 442. -109.], 0, 5.711381400004029
sub-03, trial49, 14, Patrick Dempsey, ID14_IM04.bmp, (300, 300), Ryan Reynolds, (-550, -100), Leonardo DiCaprio, (-300, 300), Keanu Reeves, (0, -400), Robert Downey Jr, (550, -100), Patrick Dempsey, [260. 265.], 1, 2.5442174000199884
sub-03, trial69, 01, Ben Affleck, ID01_IM02.bmp, (300, 300), Hugh Jackman, (0, -400), Matt Damon, (-550, -100), Leonardo DiCaprio, (550, -100), Orlando Bloom, (-300, 300), idk, [-21.  62.], 0, 2.3443258999614045
sub-03, trial7, 11, Leonardo DiCaprio, ID11_IM02.bmp, (300, 300), Ben Stiller, (550, -100), Daniel Radcliffe, (-550, -100), Elijah Wood, (-300, 300), Justin Timberlake, (0, -400), Leonardo DiCaprio, [284. 256.], 1, 0.8735675000352785
sub-03, trial17, 08, Hugh Jackman, ID08_IM03.bmp, (550, -100), Patrick Dempsey, (-300, 300), Orlando Bloom, (300, 300), Ryan Reynolds, (0, -400), Leonardo DiCaprio, (-550, -100), idk, [20. 52.], 0, 4.068322899984196
sub-03, trial52, 04, Daniel Craig, ID04_IM01.bmp, (-300, 300), Ryan Reynolds, (300, 300), Keanu Reeves, (0, -400), Orlando Bloom, (-550, -100), Robert Downey Jr, (550, -100), Daniel Craig, [-255.  258.], 1, 1.6466112000634894
sub-03, trial6, 16, Robert Pattinson, ID16_IM03.bmp, (550, -100), Matt Damon, (-300, 300), Elijah Wood, (-550, -100), Robert Downey Jr, (300, 300), Patrick Dempsey, (0, -400), Robert Pattinson, [ 520. -134.], 1, 0.9636873999843374
sub-03, trial66, 15, Robert Downey Jr, ID15_IM03.bmp, (0, -400), George Clooney, (-550, -100), Elijah Wood, (550, -100), Patrick Dempsey, (-300, 300), Daniel Radcliffe, (300, 300), Robert Downey Jr, [  59. -370.], 1, 5.2746182000264525
sub-03, trial60, 18, Ryan Reynolds, ID18_IM03.bmp, (300, 300), Hugh Jackman, (-300, 300), Orlando Bloom, (550, -100), Elijah Wood, (0, -400), Matt Damon, (-550, -100), Ryan Reynolds, [224. 286.], 1, 2.4846821000101045
sub-03, trial70, 03, Brad Pitt, ID03_IM02.bmp, (300, 300), Robert Downey Jr, (550, -100), Ben Stiller, (-300, 300), Hugh Jackman, (-550, -100), Robert Pattinson, (0, -400), Brad Pitt, [280. 279.], 1, 1.1120003999676555
sub-03, trial68, 13, Orlando Bloom, ID13_IM01.bmp, (300, 300), Ryan Reynolds, (550, -100), George Clooney, (-300, 300), Patrick Dempsey, (-550, -100), Elijah Wood, (0, -400), Orlando Bloom, [254. 272.], 1, 1.3768774999771267
sub-03, trial24, 12, Matt Damon, ID12_IM02.bmp, (300, 300), Hugh Jackman, (-300, 300), Robert Downey Jr, (550, -100), Robert Pattinson, (-550, -100), Daniel Radcliffe, (0, -400), idk, [62. 54.], 0, 5.359800299978815
sub-03, trial12, 17, Ryan Gosling, ID17_IM04.bmp, (300, 300), Daniel Radcliffe, (-300, 300), Daniel Craig, (0, -400), Ben Affleck, (550, -100), Matt Damon, (-550, -100), Ryan Gosling, [327. 311.], 1, 1.4003802998922765
sub-03, trial22, 07, George Clooney, ID07_IM01.bmp, (550, -100), Orlando Bloom, (300, 300), Daniel Radcliffe, (-300, 300), Ben Affleck, (-550, -100), Justin Timberlake, (0, -400), George Clooney, [490. -58.], 1, 0.8526513000251725
sub-03, trial45, 02, Ben Stiller, ID02_IM04.bmp, (550, -100), Ben Affleck, (-550, -100), Brad Pitt, (300, 300), Daniel Craig, (0, -400), Orlando Bloom, (-300, 300), familiar face, [ -22. -115.], 1, 3.592748099938035
sub-03, trial33, 03, Brad Pitt, ID03_IM03.bmp, (-550, -100), Matt Damon, (-300, 300), Patrick Dempsey, (550, -100), Ryan Reynolds, (300, 300), Justin Timberlake, (0, -400), Brad Pitt, [-468. -136.], 1, 2.7667698999866843
sub-03, trial65, 11, Leonardo DiCaprio, ID11_IM01.bmp, (550, -100), Orlando Bloom, (300, 300), Ben Affleck, (-550, -100), Matt Damon, (-300, 300), Robert Downey Jr, (0, -400), Leonardo DiCaprio, [545. -94.], 1, 1.2871531000128016
sub-03, trial38, 06, Elijah Wood, ID06_IM01.bmp, (0, -400), Matt Damon, (550, -100), Orlando Bloom, (-550, -100), Ryan Reynolds, (300, 300), Ryan Gosling, (-300, 300), Elijah Wood, [  -1. -360.], 1, 1.8803591000614688
sub-03, trial58, 16, Robert Pattinson, ID16_IM04.bmp, (-300, 300), Keanu Reeves, (-550, -100), Robert Downey Jr, (0, -400), Daniel Radcliffe, (300, 300), Elijah Wood, (550, -100), Robert Pattinson, [-212.  270.], 1, 2.523692899965681
sub-03, trial9, 10, Keanu Reeves, ID10_IM03.bmp, (300, 300), Patrick Dempsey, (-550, -100), Daniel Radcliffe, (-300, 300), Matt Damon, (0, -400), Brad Pitt, (550, -100), idk, [18. 68.], 0, 2.051714500063099
sub-03, trial57, 12, Matt Damon, ID12_IM01.bmp, (550, -100), Patrick Dempsey, (300, 300), Justin Timberlake, (0, -400), Keanu Reeves, (-300, 300), Robert Downey Jr, (-550, -100), idk, [-16.  56.], 0, 5.5198625000193715
sub-03, trial71, 02, Ben Stiller, ID02_IM03.bmp, (0, -400), Elijah Wood, (-300, 300), Hugh Jackman, (-550, -100), Daniel Craig, (550, -100), Ben Affleck, (300, 300), Ben Stiller, [  25. -383.], 1, 4.543269300018437
sub-03, trial10, 09, Justin Timberlake, ID09_IM03.bmp, (550, -100), Hugh Jackman, (0, -400), Ben Stiller, (300, 300), George Clooney, (-300, 300), Ryan Gosling, (-550, -100), Justin Timberlake, [ 519. -125.], 1, 2.072866900009103
sub-03, trial41, 06, Elijah Wood, ID06_IM03.bmp, (550, -100), Brad Pitt, (-550, -100), Orlando Bloom, (0, -400), Leonardo DiCaprio, (-300, 300), Daniel Craig, (300, 300), Elijah Wood, [464. -77.], 1, 1.8444526999955997
sub-03, trial64, 04, Daniel Craig, ID04_IM03.bmp, (550, -100), George Clooney, (-300, 300), Brad Pitt, (0, -400), Ben Affleck, (300, 300), Hugh Jackman, (-550, -100), Daniel Craig, [ 376. -126.], 1, 2.4003842999227345
sub-03, trial50, 12, Matt Damon, ID12_IM03.bmp, (-300, 300), Daniel Craig, (550, -100), Brad Pitt, (-550, -100), Orlando Bloom, (0, -400), Hugh Jackman, (300, 300), idk, [-45.  45.], 0, 4.118608599994332
sub-03, trial1, 04, Daniel Craig, ID04_IM04.bmp, (300, 300), Ryan Gosling, (550, -100), Patrick Dempsey, (-550, -100), Justin Timberlake, (-300, 300), Keanu Reeves, (0, -400), Daniel Craig, [360. 277.], 1, 1.5427024000091478
sub-03, trial40, 04, Daniel Craig, ID04_IM02.bmp, (-550, -100), Justin Timberlake, (550, -100), Ryan Gosling, (0, -400), Leonardo DiCaprio, (300, 300), Ben Stiller, (-300, 300), Daniel Craig, [-399.  -78.], 1, 1.0715492999879643
sub-03, trial32, 18, Ryan Reynolds, ID18_IM04.bmp, (300, 300), Keanu Reeves, (-300, 300), Robert Downey Jr, (-550, -100), Justin Timberlake, (0, -400), Ben Affleck, (550, -100), Ryan Reynolds, [219. 315.], 1, 5.979400500073098
sub-03, trial62, 01, Ben Affleck, ID01_IM04.bmp, (0, -400), Daniel Craig, (-300, 300), Leonardo DiCaprio, (-550, -100), Justin Timberlake, (300, 300), Daniel Radcliffe, (550, -100), Ben Affleck, [  81. -408.], 1, 4.809184800018556
sub-03, trial53, 14, Patrick Dempsey, ID14_IM02.bmp, (300, 300), Orlando Bloom, (550, -100), Ryan Gosling, (-550, -100), Robert Pattinson, (-300, 300), George Clooney, (0, -400), Patrick Dempsey, [288. 260.], 1, 2.7989626000635326
sub-03, trial25, 17, Ryan Gosling, ID17_IM02.bmp, (550, -100), George Clooney, (300, 300), Elijah Wood, (0, -400), Robert Pattinson, (-550, -100), Keanu Reeves, (-300, 300), Ryan Gosling, [ 490. -110.], 1, 3.059733400004916
sub-03, trial8, 14, Patrick Dempsey, ID14_IM03.bmp, (300, 300), Leonardo DiCaprio, (-300, 300), Brad Pitt, (-550, -100), Robert Downey Jr, (550, -100), Daniel Craig, (0, -400), Patrick Dempsey, [238. 292.], 1, 1.6475172999780625
sub-03, trial48, 05, Daniel Radcliffe, ID05_IM03.bmp, (-300, 300), Ryan Reynolds, (0, -400), Patrick Dempsey, (550, -100), Leonardo DiCaprio, (-550, -100), Elijah Wood, (300, 300), Daniel Radcliffe, [-194.  262.], 1, 0.8355736000230536
sub-03, trial51, 05, Daniel Radcliffe, ID05_IM04.bmp, (300, 300), Matt Damon, (-550, -100), George Clooney, (550, -100), Brad Pitt, (0, -400), Hugh Jackman, (-300, 300), Daniel Radcliffe, [191. 294.], 1, 2.127967400010675
sub-03, trial2, 14, Patrick Dempsey, ID14_IM01.bmp, (300, 300), Elijah Wood, (0, -400), Ryan Gosling, (550, -100), Robert Downey Jr, (-300, 300), Brad Pitt, (-550, -100), Patrick Dempsey, [359. 285.], 1, 1.2486890000291169
