subject,trial,celeb_id,celeb_name,celeb_image,celeb_position,rand0_name,rand0_pos,rand1_name,rand1_pos,rand2_name,rand2_pos,rand3_name,rand3_pos,answer_celeb,answer_position,correct,rt
sub-19, trial15, 17, Ryan Gosling, ID17_IM02.bmp, (-300, 300), Justin Timberlake, (0, -400), Daniel Craig, (-550, -100), Ben Stiller, (550, -100), Leonardo DiCaprio, (300, 300), familiar face, [  73. -138.], 1, 16.8188555999659
sub-19, trial69, 12, Matt Damon, ID12_IM01.bmp, (0, -400), George Clooney, (300, 300), Daniel Radcliffe, (-300, 300), Ryan Reynolds, (550, -100), Robert Pattinson, (-550, -100), Robert Pattinson, [-434.  -93.], 0, 19.504877500003204
sub-19, trial7, 08, Hugh Jackman, ID08_IM03.bmp, (550, -100), Ryan Gosling, (-550, -100), Matt Damon, (300, 300), George Clooney, (-300, 300), Robert Downey Jr, (0, -400), familiar face, [  -2. -141.], 1, 4.073958000051789
sub-19, trial68, 08, Hugh Jackman, ID08_IM02.bmp, (0, -400), Orlando Bloom, (-550, -100), Elijah Wood, (550, -100), Daniel Craig, (300, 300), Keanu Reeves, (-300, 300), familiar face, [  -2. -142.], 1, 1.0527030000230297
sub-19, trial53, 16, Robert Pattinson, ID16_IM04.bmp, (-550, -100), Ben Stiller, (-300, 300), Leonardo DiCaprio, (0, -400), Patrick Dempsey, (550, -100), Hugh Jackman, (300, 300), Robert Pattinson, [-434. -104.], 1, 5.224999699974433
sub-19, trial38, 02, Ben Stiller, ID02_IM03.bmp, (0, -400), Keanu Reeves, (300, 300), Robert Pattinson, (-300, 300), Elijah Wood, (-550, -100), Brad Pitt, (550, -100), familiar face, [ -86. -104.], 1, 1.709663400077261
sub-19, trial18, 07, George Clooney, ID07_IM02.bmp, (550, -100), Robert Pattinson, (-300, 300), Elijah Wood, (0, -400), Robert Downey Jr, (300, 300), Patrick Dempsey, (-550, -100), George Clooney, [ 406. -107.], 1, 0.9200158000458032
sub-19, trial61, 01, Ben Affleck, ID01_IM02.bmp, (300, 300), Ben Stiller, (0, -400), Robert Downey Jr, (-300, 300), George Clooney, (-550, -100), Daniel Craig, (550, -100), Ben Affleck, [272. 273.], 1, 3.400919299921952
sub-19, trial36, 10, Keanu Reeves, ID10_IM03.bmp, (-550, -100), Ryan Reynolds, (550, -100), Justin Timberlake, (-300, 300), Daniel Craig, (0, -400), Robert Pattinson, (300, 300), familiar face, [-91. -94.], 1, 28.07008939993102
sub-19, trial24, 06, Elijah Wood, ID06_IM03.bmp, (-550, -100), Ryan Gosling, (550, -100), George Clooney, (-300, 300), Matt Damon, (0, -400), Ryan Reynolds, (300, 300), idk, [-48.  44.], 0, 3.8566910999361426
sub-19, trial13, 11, Leonardo DiCaprio, ID11_IM03.bmp, (-550, -100), Matt Damon, (300, 300), Ben Affleck, (0, -400), Robert Pattinson, (-300, 300), Justin Timberlake, (550, -100), Leonardo DiCaprio, [-463. -111.], 1, 2.667759299976751
sub-19, trial20, 03, Brad Pitt, ID03_IM04.bmp, (-300, 300), Patrick Dempsey, (-550, -100), Elijah Wood, (550, -100), Ryan Reynolds, (300, 300), Daniel Radcliffe, (0, -400), Brad Pitt, [-254.  288.], 1, 2.7028109000530094
sub-19, trial40, 06, Elijah Wood, ID06_IM01.bmp, (-300, 300), Matt Damon, (550, -100), Leonardo DiCaprio, (0, -400), Brad Pitt, (-550, -100), Ben Stiller, (300, 300), Elijah Wood, [-221.  272.], 1, 6.264534599962644
sub-19, trial54, 18, Ryan Reynolds, ID18_IM03.bmp, (-550, -100), Daniel Craig, (550, -100), Robert Downey Jr, (0, -400), Keanu Reeves, (-300, 300), Elijah Wood, (300, 300), idk, [-22.  49.], 0, 1.531778599950485
sub-19, trial16, 09, Justin Timberlake, ID09_IM04.bmp, (550, -100), Ben Affleck, (-550, -100), Matt Damon, (300, 300), Daniel Radcliffe, (0, -400), Hugh Jackman, (-300, 300), idk, [-22.  49.], 0, 4.250702499994077
sub-19, trial56, 04, Daniel Craig, ID04_IM01.bmp, (-550, -100), Leonardo DiCaprio, (550, -100), George Clooney, (-300, 300), Brad Pitt, (0, -400), Elijah Wood, (300, 300), idk, [-22.  49.], 0, 0.3986207999987528
sub-19, trial57, 11, Leonardo DiCaprio, ID11_IM01.bmp, (-300, 300), Keanu Reeves, (550, -100), Ryan Gosling, (300, 300), Daniel Radcliffe, (-550, -100), Hugh Jackman, (0, -400), Leonardo DiCaprio, [-164.  262.], 1, 1.6786711000604555
sub-19, trial31, 12, Matt Damon, ID12_IM02.bmp, (300, 300), Keanu Reeves, (-550, -100), Ben Stiller, (0, -400), George Clooney, (-300, 300), Ryan Gosling, (550, -100), idk, [ 6. 39.], 0, 3.0253137999679893
sub-19, trial63, 02, Ben Stiller, ID02_IM02.bmp, (-300, 300), Hugh Jackman, (300, 300), Ben Affleck, (0, -400), Robert Pattinson, (550, -100), Patrick Dempsey, (-550, -100), idk, [ 6. 39.], 0, 0.32400540006347
sub-19, trial32, 16, Robert Pattinson, ID16_IM03.bmp, (300, 300), Brad Pitt, (0, -400), Daniel Craig, (550, -100), Ryan Reynolds, (-550, -100), Patrick Dempsey, (-300, 300), Robert Pattinson, [236. 286.], 1, 2.318204600014724
sub-19, trial3, 01, Ben Affleck, ID01_IM04.bmp, (300, 300), Keanu Reeves, (-300, 300), Daniel Craig, (550, -100), Elijah Wood, (-550, -100), Hugh Jackman, (0, -400), idk, [18. 39.], 0, 2.607684300048277
sub-19, trial48, 15, Robert Downey Jr, ID15_IM02.bmp, (300, 300), Matt Damon, (550, -100), Robert Pattinson, (0, -400), Ben Affleck, (-550, -100), Justin Timberlake, (-300, 300), idk, [18. 39.], 0, 0.39565029996447265
sub-19, trial35, 07, George Clooney, ID07_IM01.bmp, (-300, 300), Ben Stiller, (-550, -100), Daniel Radcliffe, (0, -400), Hugh Jackman, (300, 300), Justin Timberlake, (550, -100), George Clooney, [-182.  281.], 1, 1.395239399978891
sub-19, trial67, 14, Patrick Dempsey, ID14_IM02.bmp, (550, -100), George Clooney, (-300, 300), Daniel Radcliffe, (0, -400), Hugh Jackman, (300, 300), Ryan Gosling, (-550, -100), familiar face, [-69. -96.], 1, 4.92139719997067
sub-19, trial51, 10, Keanu Reeves, ID10_IM04.bmp, (550, -100), Matt Damon, (-300, 300), Ben Stiller, (-550, -100), Daniel Craig, (300, 300), Brad Pitt, (0, -400), Keanu Reeves, [488. -91.], 1, 2.0823927999008447
sub-19, trial52, 12, Matt Damon, ID12_IM04.bmp, (0, -400), Robert Downey Jr, (550, -100), Ryan Gosling, (300, 300), Leonardo DiCaprio, (-550, -100), Ben Stiller, (-300, 300), idk, [14. 25.], 0, 2.9493760999757797
sub-19, trial11, 04, Daniel Craig, ID04_IM03.bmp, (-300, 300), Hugh Jackman, (550, -100), Justin Timberlake, (0, -400), George Clooney, (300, 300), Brad Pitt, (-550, -100), idk, [61. 61.], 0, 5.877015799982473
sub-19, trial37, 06, Elijah Wood, ID06_IM02.bmp, (-550, -100), Robert Pattinson, (550, -100), George Clooney, (0, -400), Daniel Radcliffe, (300, 300), Ben Affleck, (-300, 300), Ben Affleck, [-168.  264.], 0, 7.936630900017917
sub-19, trial34, 15, Robert Downey Jr, ID15_IM04.bmp, (550, -100), Ben Affleck, (-550, -100), Leonardo DiCaprio, (0, -400), Daniel Radcliffe, (-300, 300), Justin Timberlake, (300, 300), idk, [73. 84.], 0, 1.0800790999783203
sub-19, trial47, 11, Leonardo DiCaprio, ID11_IM04.bmp, (0, -400), Hugh Jackman, (-300, 300), Ryan Gosling, (550, -100), Elijah Wood, (-550, -100), Ben Affleck, (300, 300), Leonardo DiCaprio, [  70. -372.], 1, 1.9544015999417752
sub-19, trial5, 13, Orlando Bloom, ID13_IM02.bmp, (0, -400), Brad Pitt, (-300, 300), Ryan Gosling, (-550, -100), Patrick Dempsey, (550, -100), Ryan Reynolds, (300, 300), familiar face, [ 43. -69.], 1, 1.3945343000814319
sub-19, trial28, 03, Brad Pitt, ID03_IM01.bmp, (300, 300), Orlando Bloom, (-550, -100), Justin Timberlake, (-300, 300), Elijah Wood, (550, -100), Daniel Radcliffe, (0, -400), Orlando Bloom, [-419.  -88.], 0, 4.7289425999624655
sub-19, trial39, 18, Ryan Reynolds, ID18_IM04.bmp, (550, -100), Patrick Dempsey, (0, -400), Ryan Gosling, (300, 300), Justin Timberlake, (-300, 300), Leonardo DiCaprio, (-550, -100), idk, [-61.  28.], 0, 3.761684700031765
sub-19, trial45, 03, Brad Pitt, ID03_IM02.bmp, (-300, 300), Robert Downey Jr, (-550, -100), Ryan Gosling, (0, -400), Robert Pattinson, (550, -100), Elijah Wood, (300, 300), Robert Downey Jr, [-425.  -86.], 0, 9.20054800005164
sub-19, trial23, 17, Ryan Gosling, ID17_IM04.bmp, (300, 300), Justin Timberlake, (-550, -100), Robert Pattinson, (-300, 300), Elijah Wood, (0, -400), Daniel Craig, (550, -100), familiar face, [-111.  -95.], 1, 2.1424939000280574
sub-19, trial17, 03, Brad Pitt, ID03_IM03.bmp, (550, -100), Hugh Jackman, (0, -400), Robert Downey Jr, (300, 300), Elijah Wood, (-300, 300), Ryan Gosling, (-550, -100), idk, [-61.  49.], 0, 9.48704939999152
sub-19, trial30, 05, Daniel Radcliffe, ID05_IM04.bmp, (0, -400), Robert Pattinson, (-550, -100), Leonardo DiCaprio, (-300, 300), Ben Stiller, (550, -100), Keanu Reeves, (300, 300), Daniel Radcliffe, [ -70. -382.], 1, 3.3292616000398993
sub-19, trial50, 09, Justin Timberlake, ID09_IM02.bmp, (550, -100), George Clooney, (-550, -100), Elijah Wood, (300, 300), Robert Pattinson, (-300, 300), Hugh Jackman, (0, -400), familiar face, [-84. -92.], 1, 5.49831679998897
sub-19, trial71, 05, Daniel Radcliffe, ID05_IM01.bmp, (-300, 300), Hugh Jackman, (0, -400), Orlando Bloom, (550, -100), Patrick Dempsey, (300, 300), Daniel Craig, (-550, -100), Daniel Radcliffe, [-181.  267.], 1, 2.6195366999600083
sub-19, trial55, 09, Justin Timberlake, ID09_IM03.bmp, (-550, -100), Brad Pitt, (550, -100), Orlando Bloom, (-300, 300), Ryan Gosling, (0, -400), Hugh Jackman, (300, 300), familiar face, [ -70. -106.], 1, 1.2177750000264496
sub-19, trial72, 14, Patrick Dempsey, ID14_IM04.bmp, (-550, -100), Matt Damon, (0, -400), Ryan Reynolds, (-300, 300), Ben Affleck, (550, -100), Leonardo DiCaprio, (300, 300), familiar face, [-95. -97.], 1, 5.671142900013365
sub-19, trial22, 12, Matt Damon, ID12_IM03.bmp, (-300, 300), Daniel Craig, (300, 300), Ryan Reynolds, (-550, -100), Robert Pattinson, (0, -400), Brad Pitt, (550, -100), idk, [-104.   45.], 0, 5.97784700000193
sub-19, trial41, 10, Keanu Reeves, ID10_IM02.bmp, (550, -100), George Clooney, (0, -400), Daniel Craig, (-300, 300), Robert Pattinson, (300, 300), Matt Damon, (-550, -100), Keanu Reeves, [ 534. -135.], 1, 1.720220600022003
sub-19, trial58, 05, Daniel Radcliffe, ID05_IM03.bmp, (0, -400), Robert Downey Jr, (-300, 300), Brad Pitt, (300, 300), Orlando Bloom, (-550, -100), Leonardo DiCaprio, (550, -100), Daniel Radcliffe, [  21. -396.], 1, 1.2494307000888512
sub-19, trial4, 13, Orlando Bloom, ID13_IM04.bmp, (0, -400), Matt Damon, (-550, -100), Ben Affleck, (300, 300), Ben Stiller, (550, -100), Patrick Dempsey, (-300, 300), familiar face, [ -21. -110.], 1, 3.956700599985197
sub-19, trial8, 09, Justin Timberlake, ID09_IM01.bmp, (550, -100), Robert Pattinson, (300, 300), Daniel Craig, (0, -400), Brad Pitt, (-300, 300), Keanu Reeves, (-550, -100), Daniel Craig, [ -62. -405.], 0, 8.15795529994648
sub-19, trial1, 07, George Clooney, ID07_IM04.bmp, (300, 300), Elijah Wood, (-550, -100), Ryan Reynolds, (0, -400), Matt Damon, (550, -100), Ryan Gosling, (-300, 300), George Clooney, [250. 264.], 1, 1.8842857000418007
sub-19, trial49, 16, Robert Pattinson, ID16_IM01.bmp, (550, -100), Matt Damon, (-300, 300), Ben Affleck, (-550, -100), Daniel Radcliffe, (300, 300), Daniel Craig, (0, -400), Robert Pattinson, [440. -89.], 1, 1.5278321999358013
sub-19, trial42, 17, Ryan Gosling, ID17_IM03.bmp, (0, -400), Patrick Dempsey, (550, -100), Robert Downey Jr, (300, 300), Daniel Craig, (-300, 300), Daniel Radcliffe, (-550, -100), Daniel Craig, [-247.  278.], 0, 5.559589099953882
sub-19, trial19, 17, Ryan Gosling, ID17_IM01.bmp, (-550, -100), Patrick Dempsey, (300, 300), Leonardo DiCaprio, (550, -100), Matt Damon, (-300, 300), Robert Downey Jr, (0, -400), familiar face, [   3. -118.], 1, 3.663438000017777
sub-19, trial60, 18, Ryan Reynolds, ID18_IM01.bmp, (300, 300), George Clooney, (550, -100), Keanu Reeves, (-550, -100), Daniel Craig, (-300, 300), Ben Stiller, (0, -400), idk, [ 8. 24.], 0, 0.7551746999379247
sub-19, trial62, 13, Orlando Bloom, ID13_IM03.bmp, (550, -100), Ryan Reynolds, (0, -400), Matt Damon, (300, 300), Daniel Craig, (-300, 300), Robert Pattinson, (-550, -100), idk, [20. 42.], 0, 5.250664100050926
sub-19, trial26, 04, Daniel Craig, ID04_IM02.bmp, (-300, 300), Matt Damon, (300, 300), Elijah Wood, (0, -400), Hugh Jackman, (550, -100), Ryan Gosling, (-550, -100), idk, [85. 39.], 0, 6.167811800027266
sub-19, trial6, 06, Elijah Wood, ID06_IM04.bmp, (0, -400), Ben Affleck, (-550, -100), Ryan Reynolds, (550, -100), Hugh Jackman, (300, 300), Robert Downey Jr, (-300, 300), Elijah Wood, [ -28. -371.], 1, 4.716898299986497
sub-19, trial59, 05, Daniel Radcliffe, ID05_IM02.bmp, (0, -400), Elijah Wood, (-550, -100), Ryan Gosling, (-300, 300), Matt Damon, (300, 300), Daniel Craig, (550, -100), Daniel Radcliffe, [  17. -376.], 1, 2.2291393000632524
sub-19, trial29, 11, Leonardo DiCaprio, ID11_IM02.bmp, (0, -400), Ben Affleck, (550, -100), Robert Downey Jr, (300, 300), Patrick Dempsey, (-300, 300), George Clooney, (-550, -100), Leonardo DiCaprio, [  66. -378.], 1, 2.47405079996679
sub-19, trial65, 08, Hugh Jackman, ID08_IM01.bmp, (-300, 300), Ryan Gosling, (550, -100), Leonardo DiCaprio, (300, 300), Robert Pattinson, (-550, -100), Justin Timberlake, (0, -400), idk, [77. 28.], 0, 2.141106399940327
sub-19, trial2, 08, Hugh Jackman, ID08_IM04.bmp, (300, 300), Justin Timberlake, (550, -100), Orlando Bloom, (-550, -100), Patrick Dempsey, (0, -400), Daniel Radcliffe, (-300, 300), idk, [44. 29.], 0, 6.165374199976213
sub-19, trial21, 16, Robert Pattinson, ID16_IM02.bmp, (300, 300), Keanu Reeves, (-300, 300), Ryan Reynolds, (550, -100), Daniel Craig, (-550, -100), Patrick Dempsey, (0, -400), Robert Pattinson, [319. 312.], 1, 2.6283108999487013
sub-19, trial10, 14, Patrick Dempsey, ID14_IM01.bmp, (-550, -100), Ben Stiller, (300, 300), Ryan Gosling, (-300, 300), Ryan Reynolds, (0, -400), Matt Damon, (550, -100), familiar face, [  90. -124.], 1, 10.498311000061221
sub-19, trial64, 15, Robert Downey Jr, ID15_IM01.bmp, (-550, -100), Robert Pattinson, (300, 300), Keanu Reeves, (-300, 300), Matt Damon, (550, -100), George Clooney, (0, -400), idk, [121.  12.], 0, 1.7476615000050515
sub-19, trial25, 10, Keanu Reeves, ID10_IM01.bmp, (550, -100), Brad Pitt, (-300, 300), Daniel Radcliffe, (0, -400), Orlando Bloom, (-550, -100), Robert Pattinson, (300, 300), Keanu Reeves, [ 444. -120.], 1, 3.8761031000176445
sub-19, trial27, 04, Daniel Craig, ID04_IM04.bmp, (-550, -100), Ben Stiller, (550, -100), Leonardo DiCaprio, (0, -400), Orlando Bloom, (300, 300), Daniel Radcliffe, (-300, 300), familiar face, [ -3. -84.], 1, 4.886090800049715
sub-19, trial12, 01, Ben Affleck, ID01_IM01.bmp, (-300, 300), Justin Timberlake, (300, 300), Robert Downey Jr, (-550, -100), Leonardo DiCaprio, (0, -400), Daniel Radcliffe, (550, -100), idk, [-2. 67.], 0, 0.9449360999278724
sub-19, trial46, 13, Orlando Bloom, ID13_IM01.bmp, (0, -400), Justin Timberlake, (-300, 300), Robert Downey Jr, (300, 300), George Clooney, (550, -100), Ben Affleck, (-550, -100), familiar face, [  35. -144.], 1, 5.553026100038551
sub-19, trial44, 07, George Clooney, ID07_IM03.bmp, (0, -400), Ben Affleck, (-550, -100), Daniel Radcliffe, (550, -100), Orlando Bloom, (-300, 300), Daniel Craig, (300, 300), George Clooney, [ 135. -360.], 1, 1.8406860999530181
sub-19, trial14, 18, Ryan Reynolds, ID18_IM02.bmp, (0, -400), Ben Stiller, (-300, 300), Hugh Jackman, (300, 300), Patrick Dempsey, (-550, -100), Justin Timberlake, (550, -100), familiar face, [102. -95.], 1, 10.181777899968438
sub-19, trial70, 14, Patrick Dempsey, ID14_IM03.bmp, (300, 300), Hugh Jackman, (0, -400), Robert Pattinson, (-300, 300), Keanu Reeves, (-550, -100), Matt Damon, (550, -100), familiar face, [102. -95.], 1, 4.158121300046332
sub-19, trial43, 15, Robert Downey Jr, ID15_IM03.bmp, (550, -100), Keanu Reeves, (0, -400), Orlando Bloom, (300, 300), Daniel Radcliffe, (-550, -100), Hugh Jackman, (-300, 300), familiar face, [102. -95.], 1, 12.713179100072011
sub-19, trial66, 02, Ben Stiller, ID02_IM01.bmp, (550, -100), Robert Pattinson, (-300, 300), Brad Pitt, (300, 300), Daniel Craig, (0, -400), Patrick Dempsey, (-550, -100), idk, [103.  39.], 0, 0.6600631000474095
sub-19, trial9, 02, Ben Stiller, ID02_IM04.bmp, (-300, 300), Daniel Radcliffe, (-550, -100), Brad Pitt, (300, 300), George Clooney, (0, -400), Patrick Dempsey, (550, -100), idk, [103.  39.], 0, 0.35774620005395263
sub-19, trial33, 01, Ben Affleck, ID01_IM03.bmp, (-300, 300), Ryan Gosling, (300, 300), Hugh Jackman, (0, -400), Elijah Wood, (550, -100), George Clooney, (-550, -100), idk, [103.  39.], 0, 1.3889252999797463
subject,trial,celeb_id,celeb_name,celeb_image,celeb_position,rand0_name,rand0_pos,rand1_name,rand1_pos,rand2_name,rand2_pos,rand3_name,rand3_pos,answer_celeb,answer_position,correct,rt
sub-19, trial57, 07, George Clooney, ID07_IM01.bmp, (-550, -100), Orlando Bloom, (300, 300), Keanu Reeves, (0, -400), Patrick Dempsey, (550, -100), Justin Timberlake, (-300, 300), George Clooney, [-472. -105.], 1, 1.913524999981746
sub-19, trial12, 08, Hugh Jackman, ID08_IM04.bmp, (300, 300), Robert Downey Jr, (0, -400), Justin Timberlake, (550, -100), Daniel Craig, (-300, 300), Ryan Gosling, (-550, -100), idk, [14. 31.], 0, 2.1181960999965668
sub-19, trial48, 15, Robert Downey Jr, ID15_IM03.bmp, (-300, 300), Justin Timberlake, (-550, -100), Patrick Dempsey, (300, 300), Matt Damon, (0, -400), Ryan Reynolds, (550, -100), familiar face, [  28. -102.], 1, 31.859531600028276
sub-19, trial35, 10, Keanu Reeves, ID10_IM01.bmp, (0, -400), Ben Stiller, (-300, 300), Brad Pitt, (300, 300), Elijah Wood, (-550, -100), Ryan Gosling, (550, -100), Keanu Reeves, [ -60. -406.], 1, 2.094405999989249
sub-19, trial65, 18, Ryan Reynolds, ID18_IM04.bmp, (-300, 300), Ben Stiller, (300, 300), Justin Timberlake, (550, -100), Patrick Dempsey, (-550, -100), George Clooney, (0, -400), familiar face, [ 111. -129.], 1, 14.256796399946325
sub-19, trial70, 07, George Clooney, ID07_IM03.bmp, (-550, -100), Daniel Radcliffe, (-300, 300), Keanu Reeves, (550, -100), Elijah Wood, (0, -400), Leonardo DiCaprio, (300, 300), George Clooney, [-442. -113.], 1, 1.1556092000100762
sub-19, trial50, 15, Robert Downey Jr, ID15_IM04.bmp, (-550, -100), Daniel Craig, (300, 300), Leonardo DiCaprio, (550, -100), Ryan Gosling, (-300, 300), Elijah Wood, (0, -400), familiar face, [  75. -119.], 1, 8.212258300045505
sub-19, trial66, 16, Robert Pattinson, ID16_IM01.bmp, (550, -100), George Clooney, (-300, 300), Brad Pitt, (0, -400), Ryan Reynolds, (-550, -100), Daniel Radcliffe, (300, 300), Robert Pattinson, [ 589. -111.], 1, 1.9851822000928223
sub-19, trial31, 13, Orlando Bloom, ID13_IM04.bmp, (-550, -100), Brad Pitt, (550, -100), Elijah Wood, (300, 300), Patrick Dempsey, (0, -400), Robert Downey Jr, (-300, 300), idk, [69. 29.], 0, 2.879580599954352
sub-19, trial17, 17, Ryan Gosling, ID17_IM02.bmp, (300, 300), Daniel Craig, (0, -400), Ben Affleck, (-550, -100), Brad Pitt, (-300, 300), Robert Pattinson, (550, -100), idk, [119.  29.], 0, 1.4665796000044793
sub-19, trial45, 17, Ryan Gosling, ID17_IM03.bmp, (550, -100), Justin Timberlake, (-550, -100), Robert Downey Jr, (0, -400), Elijah Wood, (300, 300), Ryan Reynolds, (-300, 300), idk, [129.  29.], 0, 0.8777528000064194
sub-19, trial10, 16, Robert Pattinson, ID16_IM04.bmp, (-300, 300), Elijah Wood, (-550, -100), Daniel Radcliffe, (300, 300), Leonardo DiCaprio, (550, -100), Robert Downey Jr, (0, -400), Robert Pattinson, [-185.  271.], 1, 2.968751600012183
sub-19, trial38, 03, Brad Pitt, ID03_IM01.bmp, (-550, -100), Ben Stiller, (300, 300), Robert Pattinson, (0, -400), Daniel Craig, (550, -100), Patrick Dempsey, (-300, 300), Brad Pitt, [-431. -111.], 1, 33.74342179996893
sub-19, trial14, 15, Robert Downey Jr, ID15_IM02.bmp, (0, -400), Ben Affleck, (550, -100), Keanu Reeves, (-550, -100), George Clooney, (-300, 300), Brad Pitt, (300, 300), idk, [-9. 36.], 0, 3.279956500045955
sub-19, trial39, 06, Elijah Wood, ID06_IM03.bmp, (-300, 300), Ben Affleck, (550, -100), Ben Stiller, (300, 300), Ryan Reynolds, (0, -400), Brad Pitt, (-550, -100), Elijah Wood, [-169.  270.], 1, 2.498680599965155
sub-19, trial62, 01, Ben Affleck, ID01_IM04.bmp, (300, 300), Ben Stiller, (550, -100), Robert Pattinson, (-550, -100), Daniel Radcliffe, (-300, 300), Leonardo DiCaprio, (0, -400), idk, [15. 41.], 0, 2.1805551000870764
sub-19, trial13, 17, Ryan Gosling, ID17_IM01.bmp, (300, 300), Ben Stiller, (550, -100), Robert Downey Jr, (-550, -100), Hugh Jackman, (-300, 300), Justin Timberlake, (0, -400), idk, [75. 49.], 0, 0.7639304000185803
sub-19, trial41, 17, Ryan Gosling, ID17_IM04.bmp, (0, -400), Hugh Jackman, (-300, 300), Robert Downey Jr, (550, -100), George Clooney, (300, 300), Daniel Craig, (-550, -100), idk, [75. 49.], 0, 0.6017500000307336
sub-19, trial60, 08, Hugh Jackman, ID08_IM01.bmp, (550, -100), George Clooney, (300, 300), Brad Pitt, (-300, 300), Orlando Bloom, (-550, -100), Ryan Reynolds, (0, -400), idk, [75. 49.], 0, 0.8234736999729648
sub-19, trial53, 01, Ben Affleck, ID01_IM03.bmp, (550, -100), Hugh Jackman, (300, 300), Orlando Bloom, (-550, -100), Robert Downey Jr, (-300, 300), Keanu Reeves, (0, -400), idk, [75. 49.], 0, 0.73316890001297
sub-19, trial2, 04, Daniel Craig, ID04_IM04.bmp, (-300, 300), Ben Stiller, (550, -100), Elijah Wood, (300, 300), Patrick Dempsey, (0, -400), Ben Affleck, (-550, -100), familiar face, [  21. -111.], 1, 13.229794400045648
sub-19, trial36, 14, Patrick Dempsey, ID14_IM02.bmp, (0, -400), George Clooney, (-300, 300), Elijah Wood, (550, -100), Daniel Radcliffe, (300, 300), Matt Damon, (-550, -100), familiar face, [ -69. -128.], 1, 10.75460739992559
sub-19, trial29, 09, Justin Timberlake, ID09_IM01.bmp, (0, -400), George Clooney, (550, -100), Ryan Gosling, (-300, 300), Matt Damon, (300, 300), Ben Stiller, (-550, -100), idk, [25. 47.], 0, 2.0575138999847695
sub-19, trial24, 11, Leonardo DiCaprio, ID11_IM04.bmp, (-300, 300), Brad Pitt, (550, -100), Orlando Bloom, (300, 300), Matt Damon, (-550, -100), George Clooney, (0, -400), Leonardo DiCaprio, [-229.  295.], 1, 1.4292328000301495
sub-19, trial54, 05, Daniel Radcliffe, ID05_IM04.bmp, (-300, 300), Ryan Gosling, (0, -400), Ben Stiller, (550, -100), Keanu Reeves, (300, 300), Hugh Jackman, (-550, -100), Daniel Radcliffe, [-210.  283.], 1, 2.7458651999477297
sub-19, trial32, 04, Daniel Craig, ID04_IM03.bmp, (-550, -100), Ryan Gosling, (300, 300), Daniel Radcliffe, (0, -400), Ryan Reynolds, (-300, 300), Ben Stiller, (550, -100), Daniel Craig, [-453. -116.], 1, 41.23383280006237
sub-19, trial6, 09, Justin Timberlake, ID09_IM03.bmp, (-300, 300), Patrick Dempsey, (-550, -100), Ben Affleck, (0, -400), Brad Pitt, (300, 300), Orlando Bloom, (550, -100), idk, [-95.  35.], 0, 0.9425237000687048
sub-19, trial47, 07, George Clooney, ID07_IM02.bmp, (-300, 300), Ben Affleck, (-550, -100), Orlando Bloom, (300, 300), Ryan Gosling, (0, -400), Justin Timberlake, (550, -100), George Clooney, [-251.  317.], 1, 1.0620312999235466
sub-19, trial40, 11, Leonardo DiCaprio, ID11_IM01.bmp, (300, 300), Justin Timberlake, (550, -100), Orlando Bloom, (0, -400), Ryan Reynolds, (-300, 300), Keanu Reeves, (-550, -100), Leonardo DiCaprio, [241. 279.], 1, 0.8334858000744134
sub-19, trial46, 07, George Clooney, ID07_IM04.bmp, (-300, 300), Elijah Wood, (300, 300), Brad Pitt, (-550, -100), Ryan Gosling, (550, -100), Orlando Bloom, (0, -400), George Clooney, [-195.  296.], 1, 0.9017503999639302
sub-19, trial58, 06, Elijah Wood, ID06_IM04.bmp, (-300, 300), Daniel Craig, (-550, -100), Leonardo DiCaprio, (0, -400), Robert Pattinson, (300, 300), Brad Pitt, (550, -100), Elijah Wood, [-187.  292.], 1, 2.0388895999640226
sub-19, trial34, 13, Orlando Bloom, ID13_IM03.bmp, (-550, -100), Leonardo DiCaprio, (300, 300), Hugh Jackman, (-300, 300), George Clooney, (0, -400), Brad Pitt, (550, -100), Orlando Bloom, [-469. -123.], 1, 9.33478869998362
sub-19, trial27, 05, Daniel Radcliffe, ID05_IM03.bmp, (550, -100), Ryan Reynolds, (-550, -100), Brad Pitt, (0, -400), Keanu Reeves, (300, 300), Robert Pattinson, (-300, 300), Daniel Radcliffe, [ 498. -114.], 1, 3.0760255999630317
sub-19, trial30, 06, Elijah Wood, ID06_IM01.bmp, (-300, 300), Brad Pitt, (0, -400), Orlando Bloom, (-550, -100), Daniel Radcliffe, (300, 300), Robert Pattinson, (550, -100), Elijah Wood, [-233.  266.], 1, 1.4786040999460965
sub-19, trial3, 05, Daniel Radcliffe, ID05_IM02.bmp, (-550, -100), Justin Timberlake, (550, -100), Robert Pattinson, (0, -400), Elijah Wood, (300, 300), Ben Affleck, (-300, 300), Daniel Radcliffe, [-440. -115.], 1, 2.75396759994328
sub-19, trial43, 12, Matt Damon, ID12_IM01.bmp, (-550, -100), Justin Timberlake, (550, -100), Orlando Bloom, (0, -400), Elijah Wood, (-300, 300), Leonardo DiCaprio, (300, 300), Matt Damon, [-506. -108.], 1, 3.801716599962674
sub-19, trial68, 12, Matt Damon, ID12_IM03.bmp, (-550, -100), Hugh Jackman, (0, -400), Daniel Craig, (550, -100), Daniel Radcliffe, (300, 300), Brad Pitt, (-300, 300), idk, [-39.  17.], 0, 4.350805000052787
sub-19, trial23, 13, Orlando Bloom, ID13_IM02.bmp, (300, 300), Keanu Reeves, (550, -100), Justin Timberlake, (0, -400), Elijah Wood, (-300, 300), Robert Pattinson, (-550, -100), idk, [-37.  18.], 0, 1.5591712000314146
sub-19, trial4, 18, Ryan Reynolds, ID18_IM02.bmp, (-550, -100), Ben Affleck, (300, 300), Brad Pitt, (-300, 300), Elijah Wood, (0, -400), Keanu Reeves, (550, -100), idk, [-37.  18.], 0, 0.380486800102517
sub-19, trial71, 04, Daniel Craig, ID04_IM02.bmp, (-300, 300), Robert Downey Jr, (300, 300), Ben Stiller, (0, -400), Leonardo DiCaprio, (550, -100), Keanu Reeves, (-550, -100), Daniel Craig, [-237.  276.], 1, 3.716899699997157
sub-19, trial5, 12, Matt Damon, ID12_IM04.bmp, (-550, -100), Keanu Reeves, (0, -400), Orlando Bloom, (300, 300), Ben Affleck, (550, -100), Elijah Wood, (-300, 300), idk, [-61.  55.], 0, 0.9581214999780059
sub-19, trial64, 18, Ryan Reynolds, ID18_IM01.bmp, (0, -400), Daniel Craig, (300, 300), Robert Pattinson, (-300, 300), Daniel Radcliffe, (550, -100), Leonardo DiCaprio, (-550, -100), idk, [-61.  55.], 0, 0.41656190005596727
sub-19, trial21, 14, Patrick Dempsey, ID14_IM04.bmp, (300, 300), Ryan Reynolds, (550, -100), Daniel Craig, (-300, 300), Robert Pattinson, (-550, -100), Hugh Jackman, (0, -400), idk, [23. 55.], 0, 5.01101449993439
sub-19, trial16, 01, Ben Affleck, ID01_IM02.bmp, (300, 300), Hugh Jackman, (-550, -100), Ryan Gosling, (0, -400), George Clooney, (-300, 300), Justin Timberlake, (550, -100), idk, [23. 55.], 0, 0.5338609999744222
sub-19, trial19, 03, Brad Pitt, ID03_IM03.bmp, (0, -400), Robert Pattinson, (300, 300), Orlando Bloom, (550, -100), Daniel Craig, (-300, 300), Robert Downey Jr, (-550, -100), Brad Pitt, [  50. -408.], 1, 12.551784600014798
sub-19, trial44, 10, Keanu Reeves, ID10_IM03.bmp, (0, -400), Orlando Bloom, (550, -100), Justin Timberlake, (-550, -100), George Clooney, (300, 300), Brad Pitt, (-300, 300), Keanu Reeves, [  60. -407.], 1, 2.9105303999967873
sub-19, trial18, 11, Leonardo DiCaprio, ID11_IM03.bmp, (-550, -100), Daniel Craig, (550, -100), Justin Timberlake, (-300, 300), Daniel Radcliffe, (0, -400), Robert Downey Jr, (300, 300), Leonardo DiCaprio, [-493.  -86.], 1, 2.6816398999653757
sub-19, trial42, 12, Matt Damon, ID12_IM02.bmp, (-300, 300), Brad Pitt, (550, -100), Ryan Reynolds, (300, 300), Orlando Bloom, (-550, -100), Leonardo DiCaprio, (0, -400), idk, [-23.  40.], 0, 2.3775748000480235
sub-19, trial67, 03, Brad Pitt, ID03_IM02.bmp, (300, 300), Elijah Wood, (550, -100), Orlando Bloom, (-550, -100), Keanu Reeves, (-300, 300), Daniel Craig, (0, -400), Brad Pitt, [290. 273.], 1, 3.889235600014217
sub-19, trial72, 14, Patrick Dempsey, ID14_IM01.bmp, (0, -400), Daniel Radcliffe, (-300, 300), Elijah Wood, (550, -100), Ryan Reynolds, (300, 300), Hugh Jackman, (-550, -100), familiar face, [ 55. -94.], 1, 8.836269100080244
sub-19, trial61, 05, Daniel Radcliffe, ID05_IM01.bmp, (300, 300), Leonardo DiCaprio, (550, -100), Ryan Gosling, (0, -400), Ben Affleck, (-550, -100), Hugh Jackman, (-300, 300), Daniel Radcliffe, [327. 291.], 1, 2.9851118000224233
sub-19, trial33, 02, Ben Stiller, ID02_IM01.bmp, (300, 300), Daniel Craig, (550, -100), Robert Pattinson, (0, -400), Brad Pitt, (-300, 300), Orlando Bloom, (-550, -100), idk, [113.  81.], 0, 0.8075374999316409
sub-19, trial20, 01, Ben Affleck, ID01_IM01.bmp, (300, 300), Ryan Reynolds, (-550, -100), Ben Stiller, (-300, 300), Matt Damon, (0, -400), Keanu Reeves, (550, -100), idk, [113.  81.], 0, 0.5954590999754146
sub-19, trial49, 14, Patrick Dempsey, ID14_IM03.bmp, (0, -400), Ben Stiller, (300, 300), Hugh Jackman, (-550, -100), Ben Affleck, (550, -100), Orlando Bloom, (-300, 300), idk, [113.  81.], 0, 5.78550090000499
sub-19, trial52, 16, Robert Pattinson, ID16_IM03.bmp, (-300, 300), Elijah Wood, (0, -400), Patrick Dempsey, (-550, -100), Keanu Reeves, (550, -100), Daniel Craig, (300, 300), Robert Pattinson, [-177.  277.], 1, 1.5532952999928966
sub-19, trial69, 10, Keanu Reeves, ID10_IM04.bmp, (300, 300), Ben Stiller, (-550, -100), Elijah Wood, (0, -400), George Clooney, (550, -100), Matt Damon, (-300, 300), Keanu Reeves, [224. 260.], 1, 2.705955500015989
sub-19, trial63, 11, Leonardo DiCaprio, ID11_IM02.bmp, (-300, 300), Ben Affleck, (550, -100), Patrick Dempsey, (0, -400), Elijah Wood, (300, 300), Ryan Gosling, (-550, -100), Leonardo DiCaprio, [-191.  298.], 1, 1.7473687999881804
sub-19, trial11, 03, Brad Pitt, ID03_IM04.bmp, (-300, 300), Leonardo DiCaprio, (300, 300), Elijah Wood, (550, -100), Orlando Bloom, (0, -400), Keanu Reeves, (-550, -100), Brad Pitt, [-195.  265.], 1, 2.2356837999541312
sub-19, trial37, 08, Hugh Jackman, ID08_IM02.bmp, (300, 300), Justin Timberlake, (550, -100), Patrick Dempsey, (0, -400), Ben Stiller, (-550, -100), Robert Downey Jr, (-300, 300), idk, [56. 46.], 0, 1.9590742000145838
sub-19, trial15, 10, Keanu Reeves, ID10_IM02.bmp, (-300, 300), Ben Stiller, (550, -100), Hugh Jackman, (0, -400), Leonardo DiCaprio, (-550, -100), Orlando Bloom, (300, 300), Keanu Reeves, [-164.  270.], 1, 1.462740300106816
sub-19, trial26, 16, Robert Pattinson, ID16_IM02.bmp, (300, 300), Elijah Wood, (-300, 300), Leonardo DiCaprio, (-550, -100), Daniel Radcliffe, (550, -100), Ben Stiller, (0, -400), Robert Pattinson, [342. 261.], 1, 1.1219993999693543
sub-19, trial8, 02, Ben Stiller, ID02_IM02.bmp, (300, 300), Matt Damon, (0, -400), Ryan Reynolds, (-550, -100), Brad Pitt, (550, -100), Orlando Bloom, (-300, 300), idk, [73. 89.], 0, 0.9225515000289306
sub-19, trial7, 02, Ben Stiller, ID02_IM04.bmp, (-550, -100), Patrick Dempsey, (300, 300), Ryan Gosling, (-300, 300), Leonardo DiCaprio, (0, -400), Keanu Reeves, (550, -100), idk, [73. 89.], 0, 0.41650699998717755
sub-19, trial9, 13, Orlando Bloom, ID13_IM01.bmp, (-300, 300), Brad Pitt, (300, 300), Ben Stiller, (-550, -100), Justin Timberlake, (0, -400), Daniel Craig, (550, -100), Ben Stiller, [-411. -101.], 0, 5.224885200033896
sub-19, trial59, 15, Robert Downey Jr, ID15_IM01.bmp, (-550, -100), Elijah Wood, (550, -100), Ben Stiller, (300, 300), Daniel Radcliffe, (0, -400), Matt Damon, (-300, 300), idk, [-38.  41.], 0, 0.8547279000049457
sub-19, trial25, 06, Elijah Wood, ID06_IM02.bmp, (-550, -100), Daniel Radcliffe, (0, -400), Daniel Craig, (300, 300), Ben Stiller, (550, -100), Ryan Gosling, (-300, 300), Elijah Wood, [-443. -119.], 1, 1.6737725998973474
sub-19, trial1, 09, Justin Timberlake, ID09_IM02.bmp, (-300, 300), George Clooney, (300, 300), Hugh Jackman, (0, -400), Ben Stiller, (550, -100), Matt Damon, (-550, -100), familiar face, [ -77. -105.], 1, 3.916157400002703
sub-19, trial56, 02, Ben Stiller, ID02_IM03.bmp, (-550, -100), Ryan Reynolds, (0, -400), Keanu Reeves, (-300, 300), George Clooney, (550, -100), Ryan Gosling, (300, 300), idk, [-47.  42.], 0, 0.5253811000147834
sub-19, trial51, 09, Justin Timberlake, ID09_IM04.bmp, (-300, 300), Leonardo DiCaprio, (0, -400), Brad Pitt, (-550, -100), Daniel Radcliffe, (300, 300), Matt Damon, (550, -100), idk, [160.  46.], 0, 3.4852875999640673
sub-19, trial55, 04, Daniel Craig, ID04_IM01.bmp, (550, -100), Hugh Jackman, (300, 300), Patrick Dempsey, (-300, 300), Justin Timberlake, (0, -400), Ryan Gosling, (-550, -100), familiar face, [ 104. -115.], 1, 5.967876499984413
sub-19, trial22, 18, Ryan Reynolds, ID18_IM03.bmp, (-550, -100), Patrick Dempsey, (0, -400), Robert Downey Jr, (300, 300), Brad Pitt, (550, -100), Orlando Bloom, (-300, 300), idk, [94. 57.], 0, 1.6877324000233784
sub-19, trial28, 08, Hugh Jackman, ID08_IM03.bmp, (0, -400), Ben Affleck, (550, -100), Elijah Wood, (300, 300), Daniel Radcliffe, (-300, 300), Ben Stiller, (-550, -100), idk, [133.  58.], 0, 1.1383843999356031
