subject,trial,celeb_id,celeb_name,celeb_image,celeb_position,rand0_name,rand0_pos,rand1_name,rand1_pos,rand2_name,rand2_pos,rand3_name,rand3_pos,answer_celeb,answer_position,correct,rt
sub-09, trial17, 18, Ryan Reynolds, ID18_IM02.bmp, (-550, -100), Robert Pattinson, (0, -400), Robert Downey Jr, (550, -100), Daniel Craig, (300, 300), Keanu Reeves, (-300, 300), familiar face, [ -26. -123.], 1, 2.59571999986656
sub-09, trial24, 04, Daniel Craig, ID04_IM03.bmp, (300, 300), Ryan Gosling, (0, -400), Ryan Reynolds, (-300, 300), Justin Timberlake, (-550, -100), Hugh Jackman, (550, -100), Ryan Reynolds, [-189.  298.], 0, 2.4903786000795662
sub-09, trial3, 11, Leonardo DiCaprio, ID11_IM04.bmp, (300, 300), Justin Timberlake, (-300, 300), Elijah Wood, (-550, -100), Robert Downey Jr, (0, -400), Orlando Bloom, (550, -100), Leonardo DiCaprio, [187. 295.], 1, 1.7169768998865038
sub-09, trial35, 06, Elijah Wood, ID06_IM01.bmp, (550, -100), Ben Affleck, (300, 300), Ben Stiller, (-550, -100), Brad Pitt, (0, -400), Daniel Radcliffe, (-300, 300), Ben Stiller, [-489. -112.], 0, 3.085919499862939
sub-09, trial34, 12, Matt Damon, ID12_IM04.bmp, (550, -100), Ryan Reynolds, (-300, 300), Daniel Craig, (-550, -100), Ben Affleck, (0, -400), Patrick Dempsey, (300, 300), familiar face, [-55. -92.], 1, 1.7439554000739008
sub-09, trial60, 07, George Clooney, ID07_IM04.bmp, (550, -100), Robert Downey Jr, (0, -400), Leonardo DiCaprio, (300, 300), Daniel Craig, (-550, -100), Elijah Wood, (-300, 300), George Clooney, [410. -97.], 1, 2.447874100180343
sub-09, trial30, 01, Ben Affleck, ID01_IM04.bmp, (300, 300), Matt Damon, (0, -400), Robert Downey Jr, (-550, -100), Keanu Reeves, (-300, 300), Leonardo DiCaprio, (550, -100), familiar face, [ 61. -84.], 1, 2.979520099936053
sub-09, trial69, 17, Ryan Gosling, ID17_IM01.bmp, (0, -400), Keanu Reeves, (-550, -100), Ben Stiller, (-300, 300), Leonardo DiCaprio, (300, 300), Patrick Dempsey, (550, -100), idk, [40. 73.], 0, 1.4513630999717861
sub-09, trial33, 10, Keanu Reeves, ID10_IM02.bmp, (0, -400), Orlando Bloom, (550, -100), Brad Pitt, (-550, -100), Leonardo DiCaprio, (300, 300), Ben Stiller, (-300, 300), Keanu Reeves, [   1. -404.], 1, 3.5593795999884605
sub-09, trial65, 18, Ryan Reynolds, ID18_IM03.bmp, (300, 300), Daniel Radcliffe, (-550, -100), Hugh Jackman, (550, -100), Ben Affleck, (0, -400), Leonardo DiCaprio, (-300, 300), familiar face, [  22. -102.], 1, 3.063099700026214
sub-09, trial48, 18, Ryan Reynolds, ID18_IM04.bmp, (550, -100), Leonardo DiCaprio, (0, -400), Ben Stiller, (300, 300), Daniel Radcliffe, (-550, -100), Keanu Reeves, (-300, 300), familiar face, [  26. -118.], 1, 0.9549135998822749
sub-09, trial61, 12, Matt Damon, ID12_IM02.bmp, (300, 300), Ryan Gosling, (-550, -100), Brad Pitt, (550, -100), Robert Pattinson, (0, -400), Orlando Bloom, (-300, 300), Matt Damon, [178. 283.], 1, 3.243544700089842
sub-09, trial31, 03, Brad Pitt, ID03_IM02.bmp, (0, -400), Ryan Gosling, (550, -100), Patrick Dempsey, (300, 300), Robert Downey Jr, (-550, -100), Matt Damon, (-300, 300), Ryan Gosling, [434. -90.], 0, 2.6150553000625223
sub-09, trial13, 10, Keanu Reeves, ID10_IM04.bmp, (-300, 300), Patrick Dempsey, (-550, -100), Ben Affleck, (300, 300), Hugh Jackman, (0, -400), Orlando Bloom, (550, -100), familiar face, [ -77. -133.], 1, 4.731582700042054
sub-09, trial72, 14, Patrick Dempsey, ID14_IM01.bmp, (300, 300), Elijah Wood, (550, -100), Daniel Craig, (-300, 300), Hugh Jackman, (0, -400), Matt Damon, (-550, -100), familiar face, [-77. -96.], 1, 0.8767063999548554
sub-09, trial1, 09, Justin Timberlake, ID09_IM02.bmp, (300, 300), Orlando Bloom, (-300, 300), George Clooney, (550, -100), Robert Downey Jr, (0, -400), Ryan Reynolds, (-550, -100), Justin Timberlake, [241. 315.], 1, 1.631175500107929
sub-09, trial6, 11, Leonardo DiCaprio, ID11_IM01.bmp, (0, -400), Hugh Jackman, (550, -100), Daniel Craig, (300, 300), Justin Timberlake, (-550, -100), George Clooney, (-300, 300), Leonardo DiCaprio, [ -13. -387.], 1, 2.867653099820018
sub-09, trial22, 16, Robert Pattinson, ID16_IM03.bmp, (0, -400), Matt Damon, (-550, -100), Elijah Wood, (550, -100), Justin Timberlake, (-300, 300), Brad Pitt, (300, 300), Robert Pattinson, [  88. -379.], 1, 1.9737184999976307
sub-09, trial41, 15, Robert Downey Jr, ID15_IM03.bmp, (-300, 300), Robert Pattinson, (550, -100), Orlando Bloom, (300, 300), Justin Timberlake, (0, -400), Leonardo DiCaprio, (-550, -100), Robert Downey Jr, [-246.  317.], 1, 1.0536660999059677
sub-09, trial15, 14, Patrick Dempsey, ID14_IM03.bmp, (-300, 300), Matt Damon, (-550, -100), Ben Stiller, (550, -100), Hugh Jackman, (300, 300), Daniel Craig, (0, -400), familiar face, [-13. -88.], 1, 4.153719000052661
sub-09, trial19, 14, Patrick Dempsey, ID14_IM02.bmp, (300, 300), Justin Timberlake, (0, -400), Leonardo DiCaprio, (550, -100), Daniel Craig, (-550, -100), George Clooney, (-300, 300), idk, [-33.  60.], 0, 1.552909400081262
sub-09, trial66, 17, Ryan Gosling, ID17_IM04.bmp, (-550, -100), Ben Stiller, (300, 300), Daniel Craig, (0, -400), Ryan Reynolds, (550, -100), Robert Downey Jr, (-300, 300), idk, [45. 31.], 0, 4.913137800060213
sub-09, trial68, 17, Ryan Gosling, ID17_IM03.bmp, (-300, 300), Brad Pitt, (-550, -100), Robert Pattinson, (0, -400), Matt Damon, (550, -100), Ben Stiller, (300, 300), Ben Stiller, [160. 279.], 0, 3.2594431000761688
sub-09, trial8, 15, Robert Downey Jr, ID15_IM02.bmp, (-300, 300), Hugh Jackman, (-550, -100), Daniel Radcliffe, (300, 300), George Clooney, (550, -100), Patrick Dempsey, (0, -400), Robert Downey Jr, [-205.  273.], 1, 1.7181834999937564
sub-09, trial38, 08, Hugh Jackman, ID08_IM01.bmp, (550, -100), Justin Timberlake, (300, 300), Ryan Reynolds, (0, -400), Elijah Wood, (-550, -100), Daniel Radcliffe, (-300, 300), idk, [-78.  83.], 0, 2.5591632002033293
sub-09, trial28, 18, Ryan Reynolds, ID18_IM01.bmp, (-300, 300), Elijah Wood, (300, 300), George Clooney, (0, -400), Hugh Jackman, (550, -100), Brad Pitt, (-550, -100), idk, [-77.  86.], 0, 0.7743285000324249
sub-09, trial12, 02, Ben Stiller, ID02_IM02.bmp, (-550, -100), Elijah Wood, (300, 300), Daniel Craig, (550, -100), Matt Damon, (-300, 300), Daniel Radcliffe, (0, -400), Ben Stiller, [-431.  -80.], 1, 2.5171837001107633
sub-09, trial10, 02, Ben Stiller, ID02_IM01.bmp, (0, -400), Ben Affleck, (-550, -100), Robert Downey Jr, (-300, 300), Leonardo DiCaprio, (550, -100), Daniel Radcliffe, (300, 300), Ben Stiller, [ -45. -409.], 1, 5.373848999850452
sub-09, trial47, 03, Brad Pitt, ID03_IM03.bmp, (-550, -100), Ben Stiller, (-300, 300), Orlando Bloom, (300, 300), Justin Timberlake, (550, -100), Robert Downey Jr, (0, -400), idk, [-115.   52.], 0, 3.2127844998613
sub-09, trial59, 16, Robert Pattinson, ID16_IM01.bmp, (-300, 300), Daniel Radcliffe, (550, -100), Brad Pitt, (0, -400), Daniel Craig, (300, 300), Justin Timberlake, (-550, -100), Robert Pattinson, [-339.  297.], 1, 1.9459152999334037
sub-09, trial26, 12, Matt Damon, ID12_IM01.bmp, (-550, -100), Ryan Reynolds, (300, 300), Ben Stiller, (550, -100), Elijah Wood, (-300, 300), Patrick Dempsey, (0, -400), Matt Damon, [-421.  -62.], 1, 2.4904560998547822
sub-09, trial7, 08, Hugh Jackman, ID08_IM02.bmp, (0, -400), George Clooney, (-300, 300), Daniel Craig, (300, 300), Ben Affleck, (-550, -100), Justin Timberlake, (550, -100), Hugh Jackman, [ -37. -410.], 1, 2.9166580999735743
sub-09, trial54, 16, Robert Pattinson, ID16_IM02.bmp, (-300, 300), Orlando Bloom, (0, -400), Patrick Dempsey, (550, -100), Daniel Radcliffe, (-550, -100), Justin Timberlake, (300, 300), Robert Pattinson, [-239.  298.], 1, 1.573357599787414
sub-09, trial55, 09, Justin Timberlake, ID09_IM03.bmp, (0, -400), Keanu Reeves, (-550, -100), Elijah Wood, (-300, 300), Ryan Reynolds, (550, -100), Patrick Dempsey, (300, 300), Justin Timberlake, [  16. -383.], 1, 2.108560400083661
sub-09, trial64, 03, Brad Pitt, ID03_IM01.bmp, (550, -100), Robert Pattinson, (-300, 300), Leonardo DiCaprio, (0, -400), Ryan Gosling, (-550, -100), Daniel Craig, (300, 300), Ryan Gosling, [-475. -113.], 0, 3.1663162999320775
sub-09, trial43, 09, Justin Timberlake, ID09_IM04.bmp, (-550, -100), Ryan Reynolds, (550, -100), Ryan Gosling, (-300, 300), Orlando Bloom, (300, 300), Keanu Reeves, (0, -400), Justin Timberlake, [-441. -122.], 1, 2.4857115999329835
sub-09, trial11, 15, Robert Downey Jr, ID15_IM04.bmp, (550, -100), Patrick Dempsey, (300, 300), Elijah Wood, (-300, 300), Ben Stiller, (0, -400), Orlando Bloom, (-550, -100), Robert Downey Jr, [470. -67.], 1, 3.2076415000483394
sub-09, trial57, 06, Elijah Wood, ID06_IM02.bmp, (300, 300), Daniel Radcliffe, (-300, 300), Ryan Reynolds, (550, -100), Keanu Reeves, (0, -400), Leonardo DiCaprio, (-550, -100), Elijah Wood, [209. 287.], 1, 3.8134951000101864
sub-09, trial49, 04, Daniel Craig, ID04_IM04.bmp, (0, -400), Ryan Reynolds, (-550, -100), Daniel Radcliffe, (300, 300), Keanu Reeves, (-300, 300), Patrick Dempsey, (550, -100), Daniel Craig, [ 151. -394.], 1, 6.835287900175899
sub-09, trial67, 02, Ben Stiller, ID02_IM04.bmp, (550, -100), Ryan Reynolds, (-550, -100), Brad Pitt, (-300, 300), Justin Timberlake, (300, 300), Orlando Bloom, (0, -400), Ben Stiller, [ 424. -119.], 1, 1.3842885000631213
sub-09, trial23, 03, Brad Pitt, ID03_IM04.bmp, (0, -400), Matt Damon, (550, -100), Daniel Craig, (-300, 300), Hugh Jackman, (-550, -100), Orlando Bloom, (300, 300), idk, [57. 41.], 0, 2.823507299879566
sub-09, trial70, 09, Justin Timberlake, ID09_IM01.bmp, (-300, 300), Keanu Reeves, (300, 300), Robert Pattinson, (0, -400), Leonardo DiCaprio, (-550, -100), Ryan Gosling, (550, -100), Justin Timberlake, [-291.  335.], 1, 1.8357575999107212
sub-09, trial25, 11, Leonardo DiCaprio, ID11_IM03.bmp, (-550, -100), Hugh Jackman, (550, -100), Elijah Wood, (0, -400), Brad Pitt, (-300, 300), Daniel Radcliffe, (300, 300), Leonardo DiCaprio, [-403.  -93.], 1, 1.7200112999416888
sub-09, trial44, 07, George Clooney, ID07_IM02.bmp, (-300, 300), Keanu Reeves, (0, -400), Ryan Reynolds, (300, 300), Ben Affleck, (-550, -100), Hugh Jackman, (550, -100), George Clooney, [-290.  294.], 1, 2.128563700011
sub-09, trial46, 12, Matt Damon, ID12_IM03.bmp, (0, -400), Robert Downey Jr, (-550, -100), Ben Affleck, (300, 300), Justin Timberlake, (550, -100), Ben Stiller, (-300, 300), Matt Damon, [  31. -431.], 1, 2.361183000029996
sub-09, trial45, 05, Daniel Radcliffe, ID05_IM01.bmp, (-550, -100), Patrick Dempsey, (0, -400), George Clooney, (550, -100), Robert Pattinson, (300, 300), Elijah Wood, (-300, 300), Daniel Radcliffe, [-458. -126.], 1, 1.7771129999309778
sub-09, trial56, 17, Ryan Gosling, ID17_IM02.bmp, (0, -400), Keanu Reeves, (550, -100), Leonardo DiCaprio, (-300, 300), Ben Stiller, (300, 300), Elijah Wood, (-550, -100), idk, [-100.   31.], 0, 1.928749700076878
sub-09, trial4, 16, Robert Pattinson, ID16_IM04.bmp, (-300, 300), Daniel Radcliffe, (550, -100), Patrick Dempsey, (0, -400), Ben Stiller, (300, 300), Robert Downey Jr, (-550, -100), Robert Pattinson, [-291.  321.], 1, 2.3773081998806447
sub-09, trial71, 01, Ben Affleck, ID01_IM02.bmp, (0, -400), Keanu Reeves, (550, -100), Hugh Jackman, (-300, 300), Justin Timberlake, (300, 300), Brad Pitt, (-550, -100), Keanu Reeves, [415. -87.], 0, 2.863840000005439
sub-09, trial20, 04, Daniel Craig, ID04_IM02.bmp, (-300, 300), Keanu Reeves, (300, 300), Daniel Radcliffe, (0, -400), Robert Downey Jr, (-550, -100), Ben Affleck, (550, -100), Daniel Craig, [-297.  298.], 1, 3.2597590999212116
sub-09, trial18, 04, Daniel Craig, ID04_IM01.bmp, (-550, -100), Justin Timberlake, (-300, 300), Brad Pitt, (0, -400), Ryan Reynolds, (300, 300), Ben Stiller, (550, -100), Ryan Reynolds, [169. 290.], 0, 6.063804499804974
sub-09, trial5, 05, Daniel Radcliffe, ID05_IM02.bmp, (-550, -100), Hugh Jackman, (300, 300), Matt Damon, (550, -100), Orlando Bloom, (-300, 300), Justin Timberlake, (0, -400), Daniel Radcliffe, [-456.  -79.], 1, 1.9468914999160916
sub-09, trial2, 01, Ben Affleck, ID01_IM03.bmp, (550, -100), Ben Stiller, (300, 300), Daniel Craig, (-550, -100), Leonardo DiCaprio, (-300, 300), George Clooney, (0, -400), idk, [-60.  52.], 0, 2.738665899960324
sub-09, trial53, 07, George Clooney, ID07_IM01.bmp, (0, -400), Ben Affleck, (300, 300), Orlando Bloom, (-300, 300), Leonardo DiCaprio, (-550, -100), Hugh Jackman, (550, -100), George Clooney, [  19. -425.], 1, 4.675868900027126
sub-09, trial37, 06, Elijah Wood, ID06_IM03.bmp, (0, -400), Ryan Reynolds, (-300, 300), Matt Damon, (300, 300), Robert Downey Jr, (-550, -100), Hugh Jackman, (550, -100), Elijah Wood, [ -95. -419.], 1, 4.022612900007516
sub-09, trial21, 02, Ben Stiller, ID02_IM03.bmp, (300, 300), Ryan Gosling, (0, -400), Justin Timberlake, (550, -100), George Clooney, (-550, -100), Daniel Radcliffe, (-300, 300), Ben Stiller, [223. 275.], 1, 3.2838024999946356
sub-09, trial42, 01, Ben Affleck, ID01_IM01.bmp, (-300, 300), Orlando Bloom, (0, -400), Ryan Reynolds, (550, -100), Justin Timberlake, (-550, -100), Keanu Reeves, (300, 300), idk, [ 0. 52.], 0, 2.5977152998093516
sub-09, trial39, 05, Daniel Radcliffe, ID05_IM03.bmp, (550, -100), Ben Affleck, (-550, -100), Patrick Dempsey, (300, 300), Daniel Craig, (-300, 300), Robert Pattinson, (0, -400), Daniel Radcliffe, [450. -76.], 1, 2.4682577999774367
sub-09, trial40, 08, Hugh Jackman, ID08_IM04.bmp, (-300, 300), Matt Damon, (550, -100), Keanu Reeves, (0, -400), Orlando Bloom, (-550, -100), Justin Timberlake, (300, 300), Hugh Jackman, [-235.  283.], 1, 4.534373199800029
sub-09, trial29, 15, Robert Downey Jr, ID15_IM01.bmp, (-550, -100), Robert Pattinson, (550, -100), Orlando Bloom, (300, 300), Matt Damon, (0, -400), Elijah Wood, (-300, 300), Robert Downey Jr, [-423.  -96.], 1, 1.2950505998451263
sub-09, trial32, 05, Daniel Radcliffe, ID05_IM04.bmp, (-550, -100), Leonardo DiCaprio, (550, -100), Ben Affleck, (-300, 300), Hugh Jackman, (0, -400), Robert Downey Jr, (300, 300), Daniel Radcliffe, [-453.  -91.], 1, 1.9296330998186022
sub-09, trial16, 13, Orlando Bloom, ID13_IM02.bmp, (-550, -100), Robert Pattinson, (550, -100), Matt Damon, (0, -400), Ben Stiller, (-300, 300), Ryan Reynolds, (300, 300), Robert Pattinson, [520. -90.], 0, 2.3633144998457283
sub-09, trial52, 11, Leonardo DiCaprio, ID11_IM02.bmp, (0, -400), Daniel Radcliffe, (300, 300), George Clooney, (-550, -100), Ryan Gosling, (-300, 300), Ben Affleck, (550, -100), Leonardo DiCaprio, [  75. -395.], 1, 2.305895699886605
sub-09, trial58, 06, Elijah Wood, ID06_IM04.bmp, (-300, 300), Ryan Reynolds, (0, -400), Hugh Jackman, (300, 300), Daniel Craig, (-550, -100), Patrick Dempsey, (550, -100), Elijah Wood, [-277.  299.], 1, 1.7876279999036342
sub-09, trial14, 14, Patrick Dempsey, ID14_IM04.bmp, (-550, -100), Orlando Bloom, (550, -100), Robert Downey Jr, (300, 300), Ryan Reynolds, (-300, 300), George Clooney, (0, -400), idk, [-104.   69.], 0, 5.154261900112033
sub-09, trial51, 13, Orlando Bloom, ID13_IM04.bmp, (300, 300), Ryan Gosling, (0, -400), Hugh Jackman, (-300, 300), Patrick Dempsey, (-550, -100), Keanu Reeves, (550, -100), idk, [-111.   50.], 0, 0.9536653999239206
sub-09, trial9, 13, Orlando Bloom, ID13_IM03.bmp, (300, 300), Ben Stiller, (-300, 300), Leonardo DiCaprio, (0, -400), Ben Affleck, (-550, -100), Hugh Jackman, (550, -100), Orlando Bloom, [206. 314.], 1, 2.0571071999147534
sub-09, trial36, 08, Hugh Jackman, ID08_IM03.bmp, (-550, -100), Robert Pattinson, (0, -400), Ryan Gosling, (300, 300), Daniel Radcliffe, (-300, 300), Ryan Reynolds, (550, -100), idk, [-24.  67.], 0, 2.7970496001653373
sub-09, trial62, 13, Orlando Bloom, ID13_IM01.bmp, (0, -400), Brad Pitt, (-300, 300), Hugh Jackman, (300, 300), Robert Downey Jr, (550, -100), Justin Timberlake, (-550, -100), Orlando Bloom, [ -19. -418.], 1, 3.2831222000531852
sub-09, trial27, 07, George Clooney, ID07_IM03.bmp, (-550, -100), Hugh Jackman, (550, -100), Justin Timberlake, (300, 300), Elijah Wood, (0, -400), Ben Affleck, (-300, 300), George Clooney, [-482. -115.], 1, 2.48523180000484
sub-09, trial50, 10, Keanu Reeves, ID10_IM01.bmp, (-300, 300), Leonardo DiCaprio, (550, -100), Ryan Reynolds, (0, -400), Ryan Gosling, (300, 300), Daniel Craig, (-550, -100), idk, [-99.  38.], 0, 2.4084166998509318
sub-09, trial63, 10, Keanu Reeves, ID10_IM03.bmp, (-300, 300), Ryan Gosling, (300, 300), Robert Downey Jr, (550, -100), Robert Pattinson, (0, -400), Daniel Craig, (-550, -100), familiar face, [ -40. -106.], 1, 4.28473350009881
subject,trial,celeb_id,celeb_name,celeb_image,celeb_position,rand0_name,rand0_pos,rand1_name,rand1_pos,rand2_name,rand2_pos,rand3_name,rand3_pos,answer_celeb,answer_position,correct,rt
sub-09, trial51, 16, Robert Pattinson, ID16_IM04.bmp, (550, -100), Ben Stiller, (-300, 300), Daniel Craig, (0, -400), Hugh Jackman, (-550, -100), Robert Downey Jr, (300, 300), Robert Pattinson, [ 440. -110.], 1, 2.02512659993954
sub-09, trial60, 13, Orlando Bloom, ID13_IM03.bmp, (-550, -100), Patrick Dempsey, (0, -400), Robert Pattinson, (-300, 300), George Clooney, (300, 300), Daniel Radcliffe, (550, -100), Orlando Bloom, [-413.  -95.], 1, 1.0380790999624878
sub-09, trial53, 02, Ben Stiller, ID02_IM01.bmp, (0, -400), Matt Damon, (-300, 300), Robert Pattinson, (550, -100), Justin Timberlake, (300, 300), Daniel Radcliffe, (-550, -100), Ben Stiller, [ -88. -397.], 1, 1.8991880000103265
sub-09, trial50, 05, Daniel Radcliffe, ID05_IM03.bmp, (300, 300), Ben Stiller, (550, -100), Leonardo DiCaprio, (0, -400), Orlando Bloom, (-550, -100), Ben Affleck, (-300, 300), Daniel Radcliffe, [208. 288.], 1, 2.2600340000353754
sub-09, trial52, 16, Robert Pattinson, ID16_IM01.bmp, (-550, -100), Elijah Wood, (-300, 300), Robert Downey Jr, (550, -100), Orlando Bloom, (0, -400), Leonardo DiCaprio, (300, 300), Robert Pattinson, [-436. -100.], 1, 1.8072718000039458
sub-09, trial9, 07, George Clooney, ID07_IM03.bmp, (0, -400), Robert Downey Jr, (550, -100), Matt Damon, (300, 300), Ben Affleck, (-550, -100), Elijah Wood, (-300, 300), George Clooney, [  63. -378.], 1, 1.4616614000406116
sub-09, trial55, 02, Ben Stiller, ID02_IM04.bmp, (-550, -100), Brad Pitt, (-300, 300), Leonardo DiCaprio, (550, -100), Daniel Craig, (300, 300), Ben Affleck, (0, -400), Ben Stiller, [-468.  -99.], 1, 1.504401700105518
sub-09, trial11, 05, Daniel Radcliffe, ID05_IM02.bmp, (0, -400), Matt Damon, (300, 300), Ryan Gosling, (550, -100), Ben Affleck, (-550, -100), Leonardo DiCaprio, (-300, 300), Daniel Radcliffe, [  53. -387.], 1, 1.842536399839446
sub-09, trial35, 05, Daniel Radcliffe, ID05_IM01.bmp, (0, -400), Daniel Craig, (-550, -100), Elijah Wood, (550, -100), Keanu Reeves, (-300, 300), Orlando Bloom, (300, 300), Daniel Radcliffe, [  97. -432.], 1, 0.8139537000097334
sub-09, trial5, 09, Justin Timberlake, ID09_IM03.bmp, (-550, -100), Matt Damon, (0, -400), Daniel Craig, (-300, 300), Elijah Wood, (550, -100), Keanu Reeves, (300, 300), Justin Timberlake, [-549.  -91.], 1, 1.0683667999692261
sub-09, trial7, 04, Daniel Craig, ID04_IM03.bmp, (300, 300), George Clooney, (-300, 300), Robert Pattinson, (550, -100), Ryan Gosling, (-550, -100), Keanu Reeves, (0, -400), Daniel Craig, [223. 298.], 1, 3.0796234998852015
sub-09, trial49, 11, Leonardo DiCaprio, ID11_IM04.bmp, (550, -100), Robert Downey Jr, (300, 300), Matt Damon, (0, -400), Patrick Dempsey, (-550, -100), Daniel Radcliffe, (-300, 300), Leonardo DiCaprio, [ 487. -101.], 1, 1.7216141999233514
sub-09, trial22, 01, Ben Affleck, ID01_IM03.bmp, (0, -400), Daniel Craig, (-300, 300), Justin Timberlake, (550, -100), Keanu Reeves, (-550, -100), Ryan Reynolds, (300, 300), idk, [-7. 46.], 0, 1.5229416999500245
sub-09, trial10, 12, Matt Damon, ID12_IM03.bmp, (0, -400), Daniel Radcliffe, (-300, 300), Brad Pitt, (550, -100), Ben Stiller, (300, 300), Leonardo DiCaprio, (-550, -100), Matt Damon, [  40. -407.], 1, 3.028249900089577
sub-09, trial67, 12, Matt Damon, ID12_IM02.bmp, (0, -400), Robert Downey Jr, (-550, -100), Brad Pitt, (550, -100), Daniel Radcliffe, (-300, 300), Keanu Reeves, (300, 300), Matt Damon, [  65. -366.], 1, 0.9923819000832736
sub-09, trial15, 06, Elijah Wood, ID06_IM04.bmp, (0, -400), Patrick Dempsey, (-550, -100), Robert Downey Jr, (550, -100), Daniel Radcliffe, (300, 300), Matt Damon, (-300, 300), Elijah Wood, [ -45. -365.], 1, 2.3034844000358135
sub-09, trial43, 18, Ryan Reynolds, ID18_IM01.bmp, (300, 300), Orlando Bloom, (-550, -100), Patrick Dempsey, (0, -400), Keanu Reeves, (-300, 300), Robert Pattinson, (550, -100), idk, [26. 77.], 0, 1.2886085000354797
sub-09, trial41, 15, Robert Downey Jr, ID15_IM01.bmp, (-550, -100), Ryan Reynolds, (0, -400), Justin Timberlake, (550, -100), Keanu Reeves, (-300, 300), Matt Damon, (300, 300), Robert Downey Jr, [-481. -123.], 1, 1.5233606998808682
sub-09, trial13, 04, Daniel Craig, ID04_IM02.bmp, (550, -100), Justin Timberlake, (-300, 300), Hugh Jackman, (-550, -100), Keanu Reeves, (0, -400), Ben Stiller, (300, 300), idk, [-135.   45.], 0, 0.7800171000417322
sub-09, trial12, 16, Robert Pattinson, ID16_IM02.bmp, (550, -100), Keanu Reeves, (300, 300), Hugh Jackman, (0, -400), Elijah Wood, (-550, -100), Ryan Reynolds, (-300, 300), Robert Pattinson, [ 477. -117.], 1, 1.6989331000950187
sub-09, trial24, 06, Elijah Wood, ID06_IM03.bmp, (0, -400), Ryan Reynolds, (550, -100), Daniel Radcliffe, (-550, -100), Orlando Bloom, (-300, 300), Justin Timberlake, (300, 300), Elijah Wood, [ 119. -401.], 1, 1.6759267998859286
sub-09, trial56, 10, Keanu Reeves, ID10_IM03.bmp, (-550, -100), Ben Stiller, (550, -100), Daniel Craig, (0, -400), Robert Downey Jr, (300, 300), Hugh Jackman, (-300, 300), Keanu Reeves, [-437. -116.], 1, 0.7110990998335183
sub-09, trial38, 01, Ben Affleck, ID01_IM01.bmp, (-300, 300), Leonardo DiCaprio, (-550, -100), Keanu Reeves, (0, -400), Brad Pitt, (300, 300), Matt Damon, (550, -100), idk, [-66.  40.], 0, 0.7203069999814034
sub-09, trial62, 18, Ryan Reynolds, ID18_IM03.bmp, (-300, 300), Ryan Gosling, (300, 300), Hugh Jackman, (550, -100), Daniel Radcliffe, (-550, -100), Patrick Dempsey, (0, -400), idk, [-78.  36.], 0, 0.5453670001588762
sub-09, trial42, 09, Justin Timberlake, ID09_IM01.bmp, (550, -100), Elijah Wood, (-550, -100), Brad Pitt, (0, -400), Matt Damon, (300, 300), Patrick Dempsey, (-300, 300), Justin Timberlake, [ 390. -115.], 1, 1.4195849001407623
sub-09, trial48, 03, Brad Pitt, ID03_IM01.bmp, (-300, 300), Leonardo DiCaprio, (-550, -100), Patrick Dempsey, (300, 300), Justin Timberlake, (550, -100), Hugh Jackman, (0, -400), familiar face, [   0. -106.], 1, 2.687605399871245
sub-09, trial8, 05, Daniel Radcliffe, ID05_IM04.bmp, (-300, 300), George Clooney, (-550, -100), Justin Timberlake, (550, -100), Matt Damon, (300, 300), Ryan Gosling, (0, -400), Daniel Radcliffe, [-296.  333.], 1, 3.1311472998932004
sub-09, trial64, 13, Orlando Bloom, ID13_IM04.bmp, (-550, -100), Patrick Dempsey, (-300, 300), Ben Affleck, (550, -100), Brad Pitt, (0, -400), Robert Pattinson, (300, 300), familiar face, [  42. -115.], 1, 1.6904489998705685
sub-09, trial33, 10, Keanu Reeves, ID10_IM01.bmp, (-550, -100), Matt Damon, (0, -400), Ryan Gosling, (550, -100), Patrick Dempsey, (-300, 300), Daniel Radcliffe, (300, 300), Keanu Reeves, [-387.  -83.], 1, 0.7411363001447171
sub-09, trial54, 15, Robert Downey Jr, ID15_IM03.bmp, (0, -400), George Clooney, (550, -100), Hugh Jackman, (-300, 300), Elijah Wood, (300, 300), Daniel Craig, (-550, -100), Robert Downey Jr, [ 136. -388.], 1, 1.9642584000248462
sub-09, trial58, 15, Robert Downey Jr, ID15_IM02.bmp, (550, -100), Matt Damon, (-550, -100), Patrick Dempsey, (300, 300), Keanu Reeves, (0, -400), Ryan Reynolds, (-300, 300), Robert Downey Jr, [ 479. -114.], 1, 2.860128999920562
sub-09, trial19, 11, Leonardo DiCaprio, ID11_IM02.bmp, (300, 300), Patrick Dempsey, (0, -400), Orlando Bloom, (-550, -100), Robert Pattinson, (-300, 300), Hugh Jackman, (550, -100), Leonardo DiCaprio, [211. 267.], 1, 4.7113727000541985
sub-09, trial47, 03, Brad Pitt, ID03_IM04.bmp, (300, 300), Ben Stiller, (-300, 300), Leonardo DiCaprio, (-550, -100), Robert Pattinson, (550, -100), Daniel Craig, (0, -400), idk, [-8. 39.], 0, 0.4166703999508172
sub-09, trial40, 06, Elijah Wood, ID06_IM01.bmp, (-300, 300), Daniel Radcliffe, (550, -100), Robert Downey Jr, (0, -400), Hugh Jackman, (-550, -100), Patrick Dempsey, (300, 300), Elijah Wood, [-258.  288.], 1, 1.1500587000045925
sub-09, trial34, 07, George Clooney, ID07_IM01.bmp, (0, -400), Daniel Radcliffe, (-550, -100), Daniel Craig, (550, -100), Hugh Jackman, (300, 300), Robert Pattinson, (-300, 300), George Clooney, [  42. -378.], 1, 1.8860705001279712
sub-09, trial4, 17, Ryan Gosling, ID17_IM01.bmp, (-300, 300), Hugh Jackman, (-550, -100), Daniel Radcliffe, (300, 300), Robert Pattinson, (550, -100), Ben Affleck, (0, -400), familiar face, [ 55. -96.], 1, 2.1137516000308096
sub-09, trial6, 02, Ben Stiller, ID02_IM03.bmp, (550, -100), Robert Pattinson, (-300, 300), George Clooney, (0, -400), Daniel Craig, (-550, -100), Hugh Jackman, (300, 300), Ben Stiller, [ 402. -117.], 1, 1.3304904999677092
sub-09, trial28, 07, George Clooney, ID07_IM04.bmp, (-550, -100), Ben Stiller, (550, -100), Robert Downey Jr, (-300, 300), Orlando Bloom, (300, 300), Ryan Reynolds, (0, -400), George Clooney, [-539. -134.], 1, 0.851112199947238
sub-09, trial29, 01, Ben Affleck, ID01_IM04.bmp, (-550, -100), Brad Pitt, (550, -100), Ryan Gosling, (-300, 300), Ben Stiller, (300, 300), Leonardo DiCaprio, (0, -400), familiar face, [  45. -130.], 1, 2.303327800007537
sub-09, trial71, 11, Leonardo DiCaprio, ID11_IM03.bmp, (550, -100), Ben Affleck, (0, -400), George Clooney, (-550, -100), Matt Damon, (300, 300), Ryan Reynolds, (-300, 300), Leonardo DiCaprio, [ 486. -100.], 1, 1.1773508000187576
sub-09, trial3, 13, Orlando Bloom, ID13_IM02.bmp, (300, 300), Keanu Reeves, (0, -400), Daniel Radcliffe, (-550, -100), Ryan Reynolds, (-300, 300), Matt Damon, (550, -100), Orlando Bloom, [169. 286.], 1, 2.224081400083378
sub-09, trial61, 08, Hugh Jackman, ID08_IM04.bmp, (-300, 300), Robert Downey Jr, (550, -100), Ben Stiller, (-550, -100), Brad Pitt, (0, -400), Ryan Gosling, (300, 300), familiar face, [  70. -110.], 1, 1.028463700087741
sub-09, trial59, 17, Ryan Gosling, ID17_IM04.bmp, (-550, -100), Patrick Dempsey, (-300, 300), Daniel Craig, (0, -400), Justin Timberlake, (300, 300), Ryan Reynolds, (550, -100), familiar face, [  50. -108.], 1, 1.0353561001829803
sub-09, trial45, 15, Robert Downey Jr, ID15_IM04.bmp, (300, 300), Ryan Gosling, (-550, -100), Keanu Reeves, (550, -100), Patrick Dempsey, (0, -400), Ben Stiller, (-300, 300), Robert Downey Jr, [174. 271.], 1, 2.0874592000618577
sub-09, trial31, 11, Leonardo DiCaprio, ID11_IM01.bmp, (550, -100), George Clooney, (-550, -100), Robert Pattinson, (300, 300), Matt Damon, (-300, 300), Justin Timberlake, (0, -400), Leonardo DiCaprio, [509. -69.], 1, 1.2565673999488354
sub-09, trial16, 13, Orlando Bloom, ID13_IM01.bmp, (0, -400), Patrick Dempsey, (-300, 300), Robert Pattinson, (-550, -100), Ryan Gosling, (300, 300), Keanu Reeves, (550, -100), Orlando Bloom, [ 104. -397.], 1, 1.3324631999712437
sub-09, trial21, 10, Keanu Reeves, ID10_IM02.bmp, (-300, 300), Brad Pitt, (300, 300), George Clooney, (-550, -100), Matt Damon, (550, -100), Daniel Radcliffe, (0, -400), Keanu Reeves, [-280.  277.], 1, 1.612920500105247
sub-09, trial46, 14, Patrick Dempsey, ID14_IM01.bmp, (0, -400), Justin Timberlake, (-550, -100), Daniel Radcliffe, (550, -100), Keanu Reeves, (300, 300), George Clooney, (-300, 300), familiar face, [  41. -149.], 1, 1.3948635999113321
sub-09, trial27, 04, Daniel Craig, ID04_IM01.bmp, (-300, 300), George Clooney, (0, -400), Robert Pattinson, (-550, -100), Ben Stiller, (300, 300), Orlando Bloom, (550, -100), familiar face, [  34. -131.], 1, 0.3528488001320511
sub-09, trial72, 09, Justin Timberlake, ID09_IM04.bmp, (300, 300), Brad Pitt, (-300, 300), Patrick Dempsey, (-550, -100), Ben Affleck, (0, -400), Keanu Reeves, (550, -100), Justin Timberlake, [175. 296.], 1, 2.0886962998192757
sub-09, trial25, 04, Daniel Craig, ID04_IM04.bmp, (-550, -100), Orlando Bloom, (300, 300), Ben Affleck, (0, -400), Ryan Gosling, (-300, 300), Leonardo DiCaprio, (550, -100), familiar face, [ 64. -94.], 1, 0.8916960000060499
sub-09, trial70, 14, Patrick Dempsey, ID14_IM04.bmp, (-550, -100), Brad Pitt, (-300, 300), Justin Timberlake, (550, -100), Ryan Reynolds, (300, 300), Ben Affleck, (0, -400), familiar face, [ 55. -86.], 1, 0.885824500117451
sub-09, trial36, 09, Justin Timberlake, ID09_IM02.bmp, (0, -400), Hugh Jackman, (-300, 300), Daniel Radcliffe, (550, -100), George Clooney, (-550, -100), Ryan Gosling, (300, 300), Justin Timberlake, [  51. -428.], 1, 2.1822364998515695
sub-09, trial20, 08, Hugh Jackman, ID08_IM01.bmp, (-550, -100), Keanu Reeves, (550, -100), Matt Damon, (-300, 300), Robert Downey Jr, (300, 300), Robert Pattinson, (0, -400), familiar face, [ -18. -101.], 1, 1.1734335999935865
sub-09, trial68, 18, Ryan Reynolds, ID18_IM02.bmp, (300, 300), Ryan Gosling, (550, -100), Keanu Reeves, (-550, -100), Brad Pitt, (-300, 300), Elijah Wood, (0, -400), familiar face, [ -38. -155.], 1, 0.7887158000376076
sub-09, trial14, 10, Keanu Reeves, ID10_IM04.bmp, (0, -400), Ben Affleck, (-300, 300), Brad Pitt, (550, -100), Ryan Gosling, (-550, -100), Matt Damon, (300, 300), Keanu Reeves, [ 108. -368.], 1, 1.5466843999456614
sub-09, trial63, 14, Patrick Dempsey, ID14_IM03.bmp, (550, -100), Daniel Radcliffe, (-300, 300), Hugh Jackman, (-550, -100), Leonardo DiCaprio, (300, 300), Matt Damon, (0, -400), familiar face, [  36. -122.], 1, 0.8674610999878496
sub-09, trial32, 16, Robert Pattinson, ID16_IM03.bmp, (300, 300), Patrick Dempsey, (550, -100), Brad Pitt, (-550, -100), George Clooney, (-300, 300), Justin Timberlake, (0, -400), Robert Pattinson, [240. 287.], 1, 1.806039100047201
sub-09, trial69, 17, Ryan Gosling, ID17_IM02.bmp, (300, 300), Patrick Dempsey, (0, -400), Justin Timberlake, (-550, -100), Daniel Craig, (-300, 300), Robert Downey Jr, (550, -100), familiar face, [  22. -154.], 1, 0.7639250999782234
sub-09, trial44, 03, Brad Pitt, ID03_IM02.bmp, (0, -400), Matt Damon, (-550, -100), Ben Affleck, (550, -100), Ben Stiller, (300, 300), Keanu Reeves, (-300, 300), familiar face, [  63. -115.], 1, 0.6843058997765183
sub-09, trial26, 08, Hugh Jackman, ID08_IM02.bmp, (-550, -100), Robert Downey Jr, (0, -400), Daniel Craig, (300, 300), Matt Damon, (-300, 300), Justin Timberlake, (550, -100), familiar face, [  63. -115.], 1, 0.32452729996293783
sub-09, trial37, 14, Patrick Dempsey, ID14_IM02.bmp, (0, -400), Brad Pitt, (300, 300), Robert Downey Jr, (-550, -100), Robert Pattinson, (-300, 300), George Clooney, (550, -100), familiar face, [  63. -115.], 1, 0.3094120000023395
sub-09, trial23, 12, Matt Damon, ID12_IM01.bmp, (300, 300), Patrick Dempsey, (-300, 300), Brad Pitt, (-550, -100), Daniel Radcliffe, (0, -400), Hugh Jackman, (550, -100), Matt Damon, [214. 267.], 1, 1.5526732001453638
sub-09, trial66, 02, Ben Stiller, ID02_IM02.bmp, (550, -100), George Clooney, (-300, 300), Robert Pattinson, (0, -400), Ryan Reynolds, (300, 300), Ben Affleck, (-550, -100), Ben Stiller, [460. -99.], 1, 1.536145000020042
sub-09, trial1, 12, Matt Damon, ID12_IM04.bmp, (300, 300), Justin Timberlake, (550, -100), Robert Downey Jr, (-550, -100), George Clooney, (-300, 300), Ben Affleck, (0, -400), Matt Damon, [224. 335.], 1, 0.7126953999977559
sub-09, trial17, 17, Ryan Gosling, ID17_IM03.bmp, (550, -100), Ben Stiller, (300, 300), Orlando Bloom, (-550, -100), Justin Timberlake, (-300, 300), Hugh Jackman, (0, -400), familiar face, [ 71. -98.], 1, 0.5138771999627352
sub-09, trial65, 18, Ryan Reynolds, ID18_IM04.bmp, (-300, 300), Robert Pattinson, (550, -100), Keanu Reeves, (300, 300), Hugh Jackman, (-550, -100), George Clooney, (0, -400), familiar face, [ -38. -118.], 1, 0.6427278001792729
sub-09, trial30, 08, Hugh Jackman, ID08_IM03.bmp, (550, -100), Matt Damon, (-300, 300), Patrick Dempsey, (300, 300), Ryan Reynolds, (0, -400), Daniel Radcliffe, (-550, -100), familiar face, [  54. -104.], 1, 0.3429838998708874
sub-09, trial18, 06, Elijah Wood, ID06_IM02.bmp, (550, -100), Ben Affleck, (300, 300), Patrick Dempsey, (0, -400), Hugh Jackman, (-300, 300), Justin Timberlake, (-550, -100), Elijah Wood, [ 537. -114.], 1, 1.823657900094986
sub-09, trial39, 01, Ben Affleck, ID01_IM02.bmp, (550, -100), Leonardo DiCaprio, (300, 300), Patrick Dempsey, (-300, 300), Ryan Reynolds, (-550, -100), Keanu Reeves, (0, -400), familiar face, [  -1. -126.], 1, 0.7477317000739276
sub-09, trial2, 03, Brad Pitt, ID03_IM03.bmp, (0, -400), Keanu Reeves, (550, -100), Matt Damon, (300, 300), George Clooney, (-550, -100), Ben Affleck, (-300, 300), familiar face, [ 131. -108.], 1, 0.9498534000013024
sub-09, trial57, 07, George Clooney, ID07_IM02.bmp, (-300, 300), Ben Stiller, (300, 300), Keanu Reeves, (550, -100), Ben Affleck, (0, -400), Ryan Gosling, (-550, -100), George Clooney, [-179.  321.], 1, 1.1562196998856962
