subject,trial,celeb_id,celeb_name,celeb_image,celeb_position,rand0_name,rand0_pos,rand1_name,rand1_pos,rand2_name,rand2_pos,rand3_name,rand3_pos,answer_celeb,answer_position,correct,rt
sub-18, trial21, 05, Daniel Radcliffe, ID05_IM03.bmp, (-300, 300), George Clooney, (550, -100), Orlando Bloom, (300, 300), Justin Timberlake, (-550, -100), Ryan Gosling, (0, -400), Daniel Radcliffe, [-149.  297.], 1, 2.4620581000344828
sub-18, trial70, 10, Keanu Reeves, ID10_IM02.bmp, (550, -100), Elijah Wood, (-300, 300), Daniel Craig, (0, -400), Justin Timberlake, (300, 300), Robert Pattinson, (-550, -100), familiar face, [ 105. -137.], 1, 2.841162900091149
sub-18, trial12, 11, Leonardo DiCaprio, ID11_IM03.bmp, (-300, 300), Brad Pitt, (0, -400), Ben Stiller, (550, -100), Matt Damon, (-550, -100), Robert Pattinson, (300, 300), Leonardo DiCaprio, [-241.  308.], 1, 3.1098428000696003
sub-18, trial48, 03, Brad Pitt, ID03_IM04.bmp, (-550, -100), Keanu Reeves, (300, 300), Matt Damon, (0, -400), Daniel Radcliffe, (550, -100), Justin Timberlake, (-300, 300), familiar face, [ 127. -128.], 1, 1.0150687000714242
sub-18, trial10, 13, Orlando Bloom, ID13_IM02.bmp, (300, 300), Daniel Craig, (0, -400), Elijah Wood, (550, -100), Ryan Gosling, (-300, 300), Ben Stiller, (-550, -100), familiar face, [  86. -123.], 1, 1.9246510000666603
sub-18, trial50, 09, Justin Timberlake, ID09_IM02.bmp, (-300, 300), Elijah Wood, (0, -400), Ryan Gosling, (550, -100), Robert Pattinson, (300, 300), Ben Stiller, (-550, -100), idk, [92. 60.], 0, 2.453233000007458
sub-18, trial72, 08, Hugh Jackman, ID08_IM02.bmp, (0, -400), Ryan Gosling, (-550, -100), Robert Downey Jr, (550, -100), Ben Affleck, (300, 300), Matt Damon, (-300, 300), idk, [119.  51.], 0, 0.8968105999520048
sub-18, trial45, 02, Ben Stiller, ID02_IM03.bmp, (550, -100), Matt Damon, (-300, 300), Keanu Reeves, (0, -400), Robert Pattinson, (300, 300), Daniel Craig, (-550, -100), idk, [101.  38.], 0, 0.8179093999788165
sub-18, trial44, 05, Daniel Radcliffe, ID05_IM01.bmp, (-300, 300), Justin Timberlake, (-550, -100), Robert Downey Jr, (300, 300), Ben Affleck, (550, -100), Patrick Dempsey, (0, -400), Daniel Radcliffe, [-188.  262.], 1, 3.688454300048761
sub-18, trial58, 12, Matt Damon, ID12_IM04.bmp, (-300, 300), Ben Stiller, (0, -400), Justin Timberlake, (-550, -100), Ben Affleck, (300, 300), Robert Downey Jr, (550, -100), idk, [116.  46.], 0, 1.4422866000095382
sub-18, trial46, 17, Ryan Gosling, ID17_IM04.bmp, (0, -400), Keanu Reeves, (-300, 300), Leonardo DiCaprio, (550, -100), Daniel Craig, (300, 300), Robert Downey Jr, (-550, -100), idk, [101.  30.], 0, 1.3347035000333562
sub-18, trial56, 16, Robert Pattinson, ID16_IM02.bmp, (-550, -100), Orlando Bloom, (-300, 300), Ryan Gosling, (0, -400), Ben Stiller, (300, 300), Brad Pitt, (550, -100), Robert Pattinson, [-486.  -97.], 1, 3.198938800022006
sub-18, trial41, 01, Ben Affleck, ID01_IM04.bmp, (-550, -100), Hugh Jackman, (0, -400), Daniel Radcliffe, (550, -100), Patrick Dempsey, (300, 300), George Clooney, (-300, 300), idk, [44. 60.], 0, 0.6135185000021011
sub-18, trial14, 01, Ben Affleck, ID01_IM03.bmp, (550, -100), Daniel Radcliffe, (300, 300), Daniel Craig, (-550, -100), Robert Pattinson, (-300, 300), Brad Pitt, (0, -400), idk, [42. 68.], 0, 0.5378206999739632
sub-18, trial15, 18, Ryan Reynolds, ID18_IM03.bmp, (-300, 300), Keanu Reeves, (-550, -100), Robert Downey Jr, (0, -400), Patrick Dempsey, (550, -100), Ben Affleck, (300, 300), idk, [109.  48.], 0, 0.6264497999800369
sub-18, trial30, 15, Robert Downey Jr, ID15_IM04.bmp, (-550, -100), Brad Pitt, (0, -400), George Clooney, (300, 300), Daniel Craig, (-300, 300), Justin Timberlake, (550, -100), idk, [137.  47.], 0, 0.8394583000335842
sub-18, trial35, 15, Robert Downey Jr, ID15_IM02.bmp, (550, -100), Orlando Bloom, (300, 300), Brad Pitt, (0, -400), Ryan Gosling, (-550, -100), Hugh Jackman, (-300, 300), familiar face, [ 125. -101.], 1, 3.2841352000832558
sub-18, trial4, 12, Matt Damon, ID12_IM02.bmp, (-550, -100), Daniel Craig, (300, 300), George Clooney, (550, -100), Orlando Bloom, (0, -400), Hugh Jackman, (-300, 300), familiar face, [128. -92.], 1, 1.0223915000678971
sub-18, trial3, 08, Hugh Jackman, ID08_IM01.bmp, (-550, -100), Ryan Gosling, (0, -400), Ben Stiller, (300, 300), Patrick Dempsey, (-300, 300), Robert Downey Jr, (550, -100), idk, [79. 53.], 0, 0.5078990999609232
sub-18, trial59, 04, Daniel Craig, ID04_IM02.bmp, (-300, 300), Patrick Dempsey, (550, -100), Justin Timberlake, (-550, -100), Robert Pattinson, (300, 300), Robert Downey Jr, (0, -400), familiar face, [120. -81.], 1, 1.301042899955064
sub-18, trial19, 01, Ben Affleck, ID01_IM01.bmp, (-550, -100), Matt Damon, (300, 300), Robert Pattinson, (0, -400), Justin Timberlake, (550, -100), Daniel Craig, (-300, 300), idk, [123.  46.], 0, 0.49491379992105067
sub-18, trial55, 17, Ryan Gosling, ID17_IM01.bmp, (-550, -100), Daniel Craig, (300, 300), Leonardo DiCaprio, (550, -100), Elijah Wood, (0, -400), Justin Timberlake, (-300, 300), idk, [134.  45.], 0, 0.7127613000338897
sub-18, trial42, 13, Orlando Bloom, ID13_IM01.bmp, (0, -400), Justin Timberlake, (300, 300), Daniel Radcliffe, (-300, 300), Patrick Dempsey, (-550, -100), Ben Stiller, (550, -100), familiar face, [ 138. -101.], 1, 0.865992599981837
sub-18, trial7, 06, Elijah Wood, ID06_IM03.bmp, (300, 300), Brad Pitt, (550, -100), Orlando Bloom, (-300, 300), Justin Timberlake, (0, -400), Hugh Jackman, (-550, -100), familiar face, [113. -95.], 1, 1.4927403999026865
sub-18, trial57, 06, Elijah Wood, ID06_IM01.bmp, (-300, 300), Leonardo DiCaprio, (550, -100), George Clooney, (0, -400), Keanu Reeves, (-550, -100), Patrick Dempsey, (300, 300), familiar face, [141. -93.], 1, 0.8876671999460086
sub-18, trial53, 07, George Clooney, ID07_IM01.bmp, (300, 300), Daniel Craig, (550, -100), Matt Damon, (-550, -100), Daniel Radcliffe, (-300, 300), Justin Timberlake, (0, -400), George Clooney, [432. 286.], 1, 2.3695633000461385
sub-18, trial2, 13, Orlando Bloom, ID13_IM04.bmp, (300, 300), Patrick Dempsey, (550, -100), Justin Timberlake, (-550, -100), Elijah Wood, (-300, 300), Robert Downey Jr, (0, -400), familiar face, [115. -86.], 1, 1.1372684000525624
sub-18, trial60, 18, Ryan Reynolds, ID18_IM02.bmp, (-550, -100), Justin Timberlake, (0, -400), George Clooney, (300, 300), Ryan Gosling, (550, -100), Ben Affleck, (-300, 300), idk, [128.  55.], 0, 0.5218397000571713
sub-18, trial6, 14, Patrick Dempsey, ID14_IM04.bmp, (0, -400), Leonardo DiCaprio, (-300, 300), Ben Affleck, (550, -100), Robert Pattinson, (-550, -100), Hugh Jackman, (300, 300), idk, [134.  56.], 0, 0.5394859999651089
sub-18, trial26, 17, Ryan Gosling, ID17_IM03.bmp, (550, -100), Robert Downey Jr, (-300, 300), Patrick Dempsey, (300, 300), Robert Pattinson, (0, -400), Elijah Wood, (-550, -100), idk, [116.  63.], 0, 0.5785813999827951
sub-18, trial29, 02, Ben Stiller, ID02_IM04.bmp, (-300, 300), Robert Pattinson, (300, 300), Daniel Craig, (550, -100), Matt Damon, (-550, -100), Brad Pitt, (0, -400), idk, [109.  57.], 0, 0.45701989997178316
sub-18, trial16, 15, Robert Downey Jr, ID15_IM03.bmp, (300, 300), Ryan Gosling, (0, -400), Hugh Jackman, (-550, -100), Keanu Reeves, (-300, 300), Ryan Reynolds, (550, -100), familiar face, [  68. -101.], 1, 1.1164210001006722
sub-18, trial9, 07, George Clooney, ID07_IM02.bmp, (-550, -100), Daniel Craig, (300, 300), Leonardo DiCaprio, (550, -100), Ben Stiller, (0, -400), Ryan Gosling, (-300, 300), George Clooney, [-393.  -79.], 1, 2.4058409000281245
sub-18, trial40, 11, Leonardo DiCaprio, ID11_IM04.bmp, (-300, 300), Robert Downey Jr, (300, 300), Robert Pattinson, (0, -400), Ryan Reynolds, (-550, -100), Elijah Wood, (550, -100), Leonardo DiCaprio, [-187.  282.], 1, 1.0436611999757588
sub-18, trial32, 12, Matt Damon, ID12_IM01.bmp, (-300, 300), Keanu Reeves, (300, 300), Robert Pattinson, (0, -400), Ben Stiller, (-550, -100), Daniel Craig, (550, -100), familiar face, [ 67. -81.], 1, 1.7276099000591785
sub-18, trial61, 16, Robert Pattinson, ID16_IM03.bmp, (-550, -100), Hugh Jackman, (-300, 300), Justin Timberlake, (550, -100), Orlando Bloom, (0, -400), Daniel Radcliffe, (300, 300), Robert Pattinson, [-414. -109.], 1, 2.080302399932407
sub-18, trial38, 02, Ben Stiller, ID02_IM02.bmp, (550, -100), Daniel Radcliffe, (-550, -100), Robert Downey Jr, (300, 300), Patrick Dempsey, (-300, 300), Robert Pattinson, (0, -400), idk, [65. 38.], 0, 0.5309231000719592
sub-18, trial27, 02, Ben Stiller, ID02_IM01.bmp, (550, -100), Ryan Reynolds, (-300, 300), George Clooney, (0, -400), Robert Downey Jr, (-550, -100), Patrick Dempsey, (300, 300), idk, [106.  48.], 0, 0.5791945999953896
sub-18, trial17, 04, Daniel Craig, ID04_IM01.bmp, (-300, 300), George Clooney, (-550, -100), Patrick Dempsey, (300, 300), Brad Pitt, (0, -400), Justin Timberlake, (550, -100), familiar face, [  63. -114.], 1, 1.466032600030303
sub-18, trial20, 14, Patrick Dempsey, ID14_IM03.bmp, (-300, 300), Hugh Jackman, (550, -100), Brad Pitt, (0, -400), Ryan Reynolds, (-550, -100), Daniel Radcliffe, (300, 300), idk, [120.  40.], 0, 0.5891308999853209
sub-18, trial33, 17, Ryan Gosling, ID17_IM02.bmp, (0, -400), Keanu Reeves, (300, 300), Hugh Jackman, (-300, 300), Justin Timberlake, (-550, -100), Patrick Dempsey, (550, -100), idk, [90. 86.], 0, 0.5089063999475911
sub-18, trial39, 11, Leonardo DiCaprio, ID11_IM02.bmp, (0, -400), Patrick Dempsey, (300, 300), George Clooney, (-550, -100), Daniel Radcliffe, (-300, 300), Matt Damon, (550, -100), Leonardo DiCaprio, [ 114. -374.], 1, 1.6371763000497594
sub-18, trial71, 07, George Clooney, ID07_IM04.bmp, (300, 300), Orlando Bloom, (550, -100), Keanu Reeves, (-300, 300), Ben Stiller, (-550, -100), Matt Damon, (0, -400), George Clooney, [388. 276.], 1, 1.9866770999506116
sub-18, trial69, 14, Patrick Dempsey, ID14_IM02.bmp, (-300, 300), Matt Damon, (550, -100), Leonardo DiCaprio, (300, 300), Robert Pattinson, (0, -400), Ryan Gosling, (-550, -100), idk, [117.  49.], 0, 0.49651129997801036
sub-18, trial1, 05, Daniel Radcliffe, ID05_IM02.bmp, (300, 300), Ben Stiller, (0, -400), Patrick Dempsey, (-550, -100), Hugh Jackman, (550, -100), Elijah Wood, (-300, 300), familiar face, [ 129. -105.], 1, 0.8181746999034658
sub-18, trial67, 04, Daniel Craig, ID04_IM03.bmp, (300, 300), Ben Stiller, (-300, 300), Robert Downey Jr, (-550, -100), Hugh Jackman, (550, -100), Robert Pattinson, (0, -400), familiar face, [ 99. -96.], 1, 1.1753748999908566
sub-18, trial43, 07, George Clooney, ID07_IM03.bmp, (0, -400), Daniel Craig, (550, -100), Ryan Reynolds, (-300, 300), Robert Pattinson, (-550, -100), Ben Stiller, (300, 300), George Clooney, [ 101. -350.], 1, 1.3498345999978483
sub-18, trial54, 14, Patrick Dempsey, ID14_IM01.bmp, (550, -100), Robert Downey Jr, (300, 300), Orlando Bloom, (-300, 300), Ben Stiller, (0, -400), Hugh Jackman, (-550, -100), idk, [93. 43.], 0, 0.5577263999730349
sub-18, trial5, 06, Elijah Wood, ID06_IM04.bmp, (300, 300), Matt Damon, (-300, 300), Ben Stiller, (0, -400), Hugh Jackman, (-550, -100), Brad Pitt, (550, -100), familiar face, [ 108. -113.], 1, 0.6450588000006974
sub-18, trial62, 03, Brad Pitt, ID03_IM03.bmp, (0, -400), Robert Pattinson, (-550, -100), Daniel Radcliffe, (300, 300), Patrick Dempsey, (-300, 300), Keanu Reeves, (550, -100), familiar face, [ 84. -81.], 1, 0.6092036000918597
sub-18, trial65, 12, Matt Damon, ID12_IM03.bmp, (-550, -100), Brad Pitt, (-300, 300), Leonardo DiCaprio, (300, 300), Robert Downey Jr, (0, -400), Orlando Bloom, (550, -100), idk, [111.  51.], 0, 0.607240500045009
sub-18, trial31, 16, Robert Pattinson, ID16_IM04.bmp, (300, 300), Ben Stiller, (550, -100), Keanu Reeves, (-550, -100), George Clooney, (0, -400), Patrick Dempsey, (-300, 300), Robert Pattinson, [430. 302.], 1, 2.019729100051336
sub-18, trial37, 09, Justin Timberlake, ID09_IM01.bmp, (0, -400), George Clooney, (550, -100), Ben Stiller, (300, 300), Ryan Gosling, (-300, 300), Leonardo DiCaprio, (-550, -100), idk, [58. 66.], 0, 0.5050596999935806
sub-18, trial18, 10, Keanu Reeves, ID10_IM03.bmp, (550, -100), Daniel Radcliffe, (-550, -100), Ryan Gosling, (-300, 300), Matt Damon, (0, -400), Hugh Jackman, (300, 300), familiar face, [  78. -124.], 1, 0.9627078999765217
sub-18, trial63, 16, Robert Pattinson, ID16_IM01.bmp, (550, -100), Hugh Jackman, (-300, 300), Keanu Reeves, (0, -400), George Clooney, (300, 300), Justin Timberlake, (-550, -100), Robert Pattinson, [392. -75.], 1, 1.0894248000113294
sub-18, trial11, 03, Brad Pitt, ID03_IM01.bmp, (300, 300), Hugh Jackman, (-550, -100), Justin Timberlake, (-300, 300), Robert Downey Jr, (0, -400), Daniel Craig, (550, -100), idk, [64. 62.], 0, 1.1331501000095159
sub-18, trial68, 03, Brad Pitt, ID03_IM02.bmp, (-550, -100), Matt Damon, (-300, 300), Elijah Wood, (550, -100), Orlando Bloom, (300, 300), Ben Stiller, (0, -400), familiar face, [  89. -120.], 1, 0.5012282999232411
sub-18, trial23, 09, Justin Timberlake, ID09_IM03.bmp, (0, -400), George Clooney, (550, -100), Hugh Jackman, (-550, -100), Robert Pattinson, (-300, 300), Ben Stiller, (300, 300), idk, [110.  35.], 0, 0.7349140000296757
sub-18, trial24, 15, Robert Downey Jr, ID15_IM01.bmp, (-550, -100), Ben Affleck, (-300, 300), Patrick Dempsey, (0, -400), Orlando Bloom, (300, 300), Leonardo DiCaprio, (550, -100), familiar face, [104. -99.], 1, 0.9437792000826448
sub-18, trial36, 09, Justin Timberlake, ID09_IM04.bmp, (-550, -100), Patrick Dempsey, (550, -100), Keanu Reeves, (0, -400), Orlando Bloom, (-300, 300), Matt Damon, (300, 300), idk, [35. 42.], 0, 0.6847389999311417
sub-18, trial51, 06, Elijah Wood, ID06_IM02.bmp, (-300, 300), Ryan Reynolds, (0, -400), Robert Pattinson, (-550, -100), Orlando Bloom, (300, 300), Daniel Craig, (550, -100), familiar face, [ 122. -107.], 1, 0.5783989001065493
sub-18, trial8, 08, Hugh Jackman, ID08_IM04.bmp, (550, -100), Leonardo DiCaprio, (-300, 300), Elijah Wood, (-550, -100), Ben Affleck, (0, -400), Daniel Craig, (300, 300), idk, [103.  35.], 0, 0.5285849999636412
sub-18, trial13, 04, Daniel Craig, ID04_IM04.bmp, (300, 300), Ben Affleck, (-300, 300), Patrick Dempsey, (-550, -100), Leonardo DiCaprio, (550, -100), Ryan Reynolds, (0, -400), familiar face, [ 99. -92.], 1, 0.8254520000191405
sub-18, trial25, 10, Keanu Reeves, ID10_IM04.bmp, (-300, 300), Matt Damon, (550, -100), Ben Affleck, (0, -400), Elijah Wood, (-550, -100), Ben Stiller, (300, 300), familiar face, [ 84. -98.], 1, 0.4221974000101909
sub-18, trial47, 01, Ben Affleck, ID01_IM02.bmp, (-550, -100), Daniel Craig, (300, 300), Daniel Radcliffe, (0, -400), Robert Downey Jr, (550, -100), George Clooney, (-300, 300), idk, [93. 27.], 0, 0.44385469995904714
sub-18, trial64, 11, Leonardo DiCaprio, ID11_IM01.bmp, (-300, 300), Justin Timberlake, (550, -100), Keanu Reeves, (300, 300), Hugh Jackman, (-550, -100), Orlando Bloom, (0, -400), Leonardo DiCaprio, [-136.  263.], 1, 3.023281399975531
sub-18, trial66, 05, Daniel Radcliffe, ID05_IM04.bmp, (-550, -100), Daniel Craig, (-300, 300), Patrick Dempsey, (300, 300), Ryan Reynolds, (550, -100), Hugh Jackman, (0, -400), familiar face, [ 159. -100.], 1, 1.3487538000335917
sub-18, trial34, 18, Ryan Reynolds, ID18_IM01.bmp, (-550, -100), Justin Timberlake, (550, -100), Daniel Radcliffe, (-300, 300), Hugh Jackman, (0, -400), Matt Damon, (300, 300), idk, [86. 48.], 0, 0.5717980000190437
sub-18, trial49, 13, Orlando Bloom, ID13_IM03.bmp, (-550, -100), Leonardo DiCaprio, (-300, 300), Robert Downey Jr, (0, -400), Elijah Wood, (550, -100), Justin Timberlake, (300, 300), familiar face, [ 35. -84.], 1, 0.6763831999851391
sub-18, trial22, 10, Keanu Reeves, ID10_IM01.bmp, (300, 300), Ryan Reynolds, (-550, -100), Brad Pitt, (550, -100), Ben Stiller, (0, -400), Orlando Bloom, (-300, 300), idk, [99. 40.], 0, 0.6540948000038043
sub-18, trial28, 08, Hugh Jackman, ID08_IM03.bmp, (-300, 300), Ryan Gosling, (300, 300), Brad Pitt, (550, -100), Daniel Radcliffe, (0, -400), Orlando Bloom, (-550, -100), idk, [106.  45.], 0, 0.4652551000472158
sub-18, trial52, 18, Ryan Reynolds, ID18_IM04.bmp, (550, -100), Elijah Wood, (-300, 300), Hugh Jackman, (0, -400), Ben Stiller, (-550, -100), Ben Affleck, (300, 300), idk, [127.  42.], 0, 0.5003467000788078
subject,trial,celeb_id,celeb_name,celeb_image,celeb_position,rand0_name,rand0_pos,rand1_name,rand1_pos,rand2_name,rand2_pos,rand3_name,rand3_pos,answer_celeb,answer_position,correct,rt
sub-18, trial41, 02, Ben Stiller, ID02_IM04.bmp, (550, -100), Justin Timberlake, (0, -400), Robert Pattinson, (300, 300), Ryan Gosling, (-300, 300), Keanu Reeves, (-550, -100), idk, [55. 32.], 0, 2.8928717999951914
sub-18, trial59, 18, Ryan Reynolds, ID18_IM01.bmp, (-550, -100), Ben Affleck, (-300, 300), Daniel Radcliffe, (300, 300), Hugh Jackman, (550, -100), Leonardo DiCaprio, (0, -400), idk, [47. 35.], 0, 0.6413011000258848
sub-18, trial71, 03, Brad Pitt, ID03_IM03.bmp, (-550, -100), Ryan Gosling, (550, -100), Robert Downey Jr, (-300, 300), George Clooney, (0, -400), Leonardo DiCaprio, (300, 300), familiar face, [ 63. -96.], 1, 20.95714399998542
sub-18, trial6, 08, Hugh Jackman, ID08_IM03.bmp, (-550, -100), Elijah Wood, (550, -100), Daniel Radcliffe, (300, 300), Brad Pitt, (-300, 300), Ryan Gosling, (0, -400), idk, [80. 18.], 0, 0.9163431000197306
sub-18, trial68, 11, Leonardo DiCaprio, ID11_IM03.bmp, (-550, -100), Hugh Jackman, (550, -100), Keanu Reeves, (0, -400), Robert Pattinson, (-300, 300), Daniel Craig, (300, 300), Leonardo DiCaprio, [-430. -113.], 1, 1.692383399931714
sub-18, trial29, 16, Robert Pattinson, ID16_IM02.bmp, (-550, -100), Brad Pitt, (300, 300), George Clooney, (0, -400), Elijah Wood, (-300, 300), Hugh Jackman, (550, -100), Robert Pattinson, [-429. -129.], 1, 1.2954701000126079
sub-18, trial50, 10, Keanu Reeves, ID10_IM04.bmp, (-300, 300), Brad Pitt, (-550, -100), Orlando Bloom, (300, 300), Robert Downey Jr, (550, -100), Ben Stiller, (0, -400), Keanu Reeves, [-355.  306.], 1, 10.968946899985895
sub-18, trial16, 09, Justin Timberlake, ID09_IM03.bmp, (-300, 300), Keanu Reeves, (550, -100), Ben Affleck, (-550, -100), Ben Stiller, (300, 300), Hugh Jackman, (0, -400), idk, [-110.   17.], 0, 1.1675045000156388
sub-18, trial44, 08, Hugh Jackman, ID08_IM04.bmp, (-550, -100), Ryan Gosling, (550, -100), Matt Damon, (-300, 300), Daniel Craig, (300, 300), Ben Affleck, (0, -400), idk, [-91.  47.], 0, 0.6143966999370605
sub-18, trial37, 06, Elijah Wood, ID06_IM01.bmp, (0, -400), Matt Damon, (-300, 300), Robert Downey Jr, (300, 300), Ben Stiller, (550, -100), Patrick Dempsey, (-550, -100), Elijah Wood, [-127. -384.], 1, 12.123941699974239
sub-18, trial58, 04, Daniel Craig, ID04_IM01.bmp, (-300, 300), Keanu Reeves, (0, -400), Leonardo DiCaprio, (-550, -100), Ryan Gosling, (300, 300), Patrick Dempsey, (550, -100), Daniel Craig, [-227.  290.], 1, 32.82038630009629
sub-18, trial63, 04, Daniel Craig, ID04_IM03.bmp, (300, 300), Orlando Bloom, (-300, 300), Daniel Radcliffe, (-550, -100), Ben Stiller, (550, -100), Ryan Gosling, (0, -400), Daniel Craig, [165. 295.], 1, 1.4654073999263346
sub-18, trial21, 11, Leonardo DiCaprio, ID11_IM01.bmp, (-300, 300), Daniel Radcliffe, (-550, -100), Matt Damon, (0, -400), Robert Pattinson, (550, -100), Robert Downey Jr, (300, 300), Leonardo DiCaprio, [-235.  299.], 1, 1.7724242999684066
sub-18, trial15, 18, Ryan Reynolds, ID18_IM03.bmp, (0, -400), George Clooney, (300, 300), Ben Stiller, (-300, 300), Patrick Dempsey, (-550, -100), Justin Timberlake, (550, -100), idk, [-29.  56.], 0, 0.603812399902381
sub-18, trial28, 15, Robert Downey Jr, ID15_IM02.bmp, (0, -400), Ben Affleck, (300, 300), Patrick Dempsey, (550, -100), Ryan Gosling, (-550, -100), George Clooney, (-300, 300), Robert Downey Jr, [  24. -398.], 1, 4.896083200001158
sub-18, trial70, 16, Robert Pattinson, ID16_IM01.bmp, (-550, -100), George Clooney, (550, -100), Justin Timberlake, (0, -400), Ben Affleck, (300, 300), Elijah Wood, (-300, 300), Robert Pattinson, [-489.  -93.], 1, 1.1946965999668464
sub-18, trial10, 05, Daniel Radcliffe, ID05_IM04.bmp, (-300, 300), Justin Timberlake, (-550, -100), Robert Downey Jr, (300, 300), Leonardo DiCaprio, (0, -400), Hugh Jackman, (550, -100), Daniel Radcliffe, [-205.  295.], 1, 1.2494188999990001
sub-18, trial56, 04, Daniel Craig, ID04_IM04.bmp, (550, -100), Daniel Radcliffe, (0, -400), Patrick Dempsey, (-300, 300), Matt Damon, (300, 300), Ben Stiller, (-550, -100), idk, [64. 46.], 0, 7.460601599887013
sub-18, trial42, 03, Brad Pitt, ID03_IM04.bmp, (550, -100), Ryan Gosling, (-550, -100), Ben Stiller, (-300, 300), Orlando Bloom, (0, -400), Robert Downey Jr, (300, 300), familiar face, [ 111. -100.], 1, 2.008015100029297
sub-18, trial60, 12, Matt Damon, ID12_IM04.bmp, (0, -400), Daniel Radcliffe, (-550, -100), Ryan Reynolds, (-300, 300), Patrick Dempsey, (550, -100), Robert Pattinson, (300, 300), idk, [65. 67.], 0, 0.6457205000333488
sub-18, trial23, 08, Hugh Jackman, ID08_IM02.bmp, (550, -100), Elijah Wood, (-300, 300), Patrick Dempsey, (300, 300), George Clooney, (-550, -100), Daniel Radcliffe, (0, -400), idk, [55. 47.], 0, 0.4820711000356823
sub-18, trial65, 05, Daniel Radcliffe, ID05_IM01.bmp, (-550, -100), Justin Timberlake, (-300, 300), Matt Damon, (0, -400), Ryan Reynolds, (550, -100), Hugh Jackman, (300, 300), Daniel Radcliffe, [-409.  -91.], 1, 1.6122821000171825
sub-18, trial66, 12, Matt Damon, ID12_IM03.bmp, (300, 300), Patrick Dempsey, (550, -100), Hugh Jackman, (-550, -100), Daniel Radcliffe, (-300, 300), Ben Stiller, (0, -400), idk, [51. 36.], 0, 0.6722969999536872
sub-18, trial43, 07, George Clooney, ID07_IM02.bmp, (300, 300), Ryan Reynolds, (-300, 300), Hugh Jackman, (-550, -100), Robert Downey Jr, (550, -100), Justin Timberlake, (0, -400), George Clooney, [255. 303.], 1, 1.6355727000627667
sub-18, trial52, 13, Orlando Bloom, ID13_IM03.bmp, (0, -400), Hugh Jackman, (-300, 300), George Clooney, (550, -100), Matt Damon, (300, 300), Daniel Craig, (-550, -100), Orlando Bloom, [ -68. -396.], 1, 4.73640679998789
sub-18, trial30, 16, Robert Pattinson, ID16_IM04.bmp, (-300, 300), Ben Affleck, (0, -400), George Clooney, (300, 300), Patrick Dempsey, (550, -100), Robert Downey Jr, (-550, -100), Robert Pattinson, [-309.  294.], 1, 1.9922390000429004
sub-18, trial35, 16, Robert Pattinson, ID16_IM03.bmp, (0, -400), Ryan Gosling, (550, -100), Orlando Bloom, (-300, 300), Ryan Reynolds, (-550, -100), Matt Damon, (300, 300), Robert Pattinson, [ -86. -394.], 1, 2.4072368999477476
sub-18, trial4, 06, Elijah Wood, ID06_IM04.bmp, (0, -400), Matt Damon, (550, -100), Ben Affleck, (-550, -100), Daniel Craig, (-300, 300), Hugh Jackman, (300, 300), Elijah Wood, [ -36. -407.], 1, 9.804937899927609
sub-18, trial7, 07, George Clooney, ID07_IM01.bmp, (300, 300), Robert Downey Jr, (-300, 300), Ben Stiller, (-550, -100), Hugh Jackman, (0, -400), Daniel Craig, (550, -100), George Clooney, [301. 317.], 1, 1.075050099985674
sub-18, trial2, 01, Ben Affleck, ID01_IM04.bmp, (-550, -100), Leonardo DiCaprio, (-300, 300), Daniel Craig, (300, 300), Robert Downey Jr, (550, -100), Justin Timberlake, (0, -400), idk, [65. 34.], 0, 0.67748779989779
sub-18, trial57, 09, Justin Timberlake, ID09_IM02.bmp, (-550, -100), Keanu Reeves, (300, 300), Daniel Radcliffe, (550, -100), Brad Pitt, (-300, 300), Ryan Gosling, (0, -400), idk, [130.  51.], 0, 1.08874079992529
sub-18, trial69, 17, Ryan Gosling, ID17_IM03.bmp, (300, 300), Daniel Radcliffe, (-550, -100), Elijah Wood, (-300, 300), Robert Downey Jr, (0, -400), Daniel Craig, (550, -100), idk, [87. 46.], 0, 0.4750137000810355
sub-18, trial62, 12, Matt Damon, ID12_IM01.bmp, (-300, 300), George Clooney, (0, -400), Patrick Dempsey, (550, -100), Leonardo DiCaprio, (300, 300), Hugh Jackman, (-550, -100), idk, [72. 66.], 0, 0.6932229999219999
sub-18, trial9, 03, Brad Pitt, ID03_IM01.bmp, (0, -400), George Clooney, (-550, -100), Elijah Wood, (550, -100), Robert Downey Jr, (-300, 300), Leonardo DiCaprio, (300, 300), idk, [80. 53.], 0, 2.951866599963978
sub-18, trial20, 10, Keanu Reeves, ID10_IM01.bmp, (300, 300), Daniel Radcliffe, (-300, 300), George Clooney, (-550, -100), Ben Affleck, (550, -100), Ben Stiller, (0, -400), Keanu Reeves, [313. 296.], 1, 3.2791751000331715
sub-18, trial40, 02, Ben Stiller, ID02_IM01.bmp, (550, -100), Ben Affleck, (-550, -100), Brad Pitt, (300, 300), George Clooney, (0, -400), Robert Pattinson, (-300, 300), idk, [98. 53.], 0, 0.6414235999109223
sub-18, trial48, 01, Ben Affleck, ID01_IM01.bmp, (-550, -100), Elijah Wood, (0, -400), Justin Timberlake, (550, -100), Daniel Radcliffe, (-300, 300), Patrick Dempsey, (300, 300), idk, [103.  57.], 0, 0.4857023999793455
sub-18, trial14, 05, Daniel Radcliffe, ID05_IM02.bmp, (550, -100), Ben Stiller, (300, 300), Robert Pattinson, (-550, -100), Elijah Wood, (0, -400), Orlando Bloom, (-300, 300), Elijah Wood, [  93. -382.], 0, 2.712114099995233
sub-18, trial49, 15, Robert Downey Jr, ID15_IM01.bmp, (300, 300), Daniel Radcliffe, (-300, 300), Patrick Dempsey, (0, -400), George Clooney, (-550, -100), Elijah Wood, (550, -100), Robert Downey Jr, [393. 294.], 1, 8.770620899973437
sub-18, trial67, 02, Ben Stiller, ID02_IM02.bmp, (300, 300), Daniel Radcliffe, (-550, -100), Robert Downey Jr, (0, -400), Brad Pitt, (-300, 300), Patrick Dempsey, (550, -100), idk, [115.  71.], 0, 0.45691479998640716
sub-18, trial11, 17, Ryan Gosling, ID17_IM04.bmp, (-550, -100), Elijah Wood, (550, -100), Keanu Reeves, (300, 300), Hugh Jackman, (0, -400), Robert Downey Jr, (-300, 300), idk, [92. 72.], 0, 0.38038919994141906
sub-18, trial47, 01, Ben Affleck, ID01_IM02.bmp, (550, -100), Matt Damon, (-550, -100), Brad Pitt, (0, -400), Ryan Reynolds, (-300, 300), Leonardo DiCaprio, (300, 300), idk, [84. 63.], 0, 0.5786140999989584
sub-18, trial38, 17, Ryan Gosling, ID17_IM01.bmp, (0, -400), Ben Affleck, (-550, -100), Patrick Dempsey, (550, -100), Daniel Craig, (300, 300), Robert Pattinson, (-300, 300), idk, [103.  53.], 0, 0.45750769996084273
sub-18, trial5, 15, Robert Downey Jr, ID15_IM03.bmp, (300, 300), Ryan Gosling, (550, -100), Keanu Reeves, (0, -400), Matt Damon, (-550, -100), Hugh Jackman, (-300, 300), Robert Downey Jr, [353. 309.], 1, 1.2131827999837697
sub-18, trial31, 11, Leonardo DiCaprio, ID11_IM04.bmp, (0, -400), Robert Pattinson, (550, -100), Daniel Craig, (-300, 300), Ryan Reynolds, (300, 300), Brad Pitt, (-550, -100), Leonardo DiCaprio, [  95. -407.], 1, 1.5472382999723777
sub-18, trial8, 14, Patrick Dempsey, ID14_IM04.bmp, (550, -100), Ryan Gosling, (-300, 300), Justin Timberlake, (0, -400), George Clooney, (300, 300), Elijah Wood, (-550, -100), idk, [103.  62.], 0, 0.5064393000211567
sub-18, trial64, 08, Hugh Jackman, ID08_IM01.bmp, (550, -100), Robert Downey Jr, (-550, -100), Elijah Wood, (0, -400), Patrick Dempsey, (-300, 300), Ryan Reynolds, (300, 300), idk, [75. 86.], 0, 0.4200898000271991
sub-18, trial18, 09, Justin Timberlake, ID09_IM01.bmp, (300, 300), Robert Pattinson, (-550, -100), Elijah Wood, (550, -100), Orlando Bloom, (-300, 300), Hugh Jackman, (0, -400), idk, [84. 68.], 0, 0.5931867000181228
sub-18, trial61, 03, Brad Pitt, ID03_IM02.bmp, (300, 300), Robert Pattinson, (-550, -100), Ryan Reynolds, (-300, 300), Leonardo DiCaprio, (550, -100), Hugh Jackman, (0, -400), idk, [90. 69.], 0, 0.7120055999839678
sub-18, trial24, 01, Ben Affleck, ID01_IM03.bmp, (-550, -100), Justin Timberlake, (-300, 300), Elijah Wood, (550, -100), Patrick Dempsey, (0, -400), Ryan Gosling, (300, 300), idk, [111.  48.], 0, 0.6652915000449866
sub-18, trial39, 14, Patrick Dempsey, ID14_IM01.bmp, (550, -100), Ryan Gosling, (-300, 300), Ryan Reynolds, (-550, -100), Leonardo DiCaprio, (300, 300), Daniel Craig, (0, -400), idk, [114.  50.], 0, 0.41248920001089573
sub-18, trial12, 06, Elijah Wood, ID06_IM02.bmp, (-550, -100), Hugh Jackman, (-300, 300), Ryan Gosling, (550, -100), Daniel Radcliffe, (0, -400), Robert Downey Jr, (300, 300), Elijah Wood, [-476. -111.], 1, 2.9934205000754446
sub-18, trial34, 10, Keanu Reeves, ID10_IM03.bmp, (0, -400), Ben Stiller, (-300, 300), Leonardo DiCaprio, (300, 300), Orlando Bloom, (550, -100), Patrick Dempsey, (-550, -100), Keanu Reeves, [ 131. -385.], 1, 2.175833999994211
sub-18, trial53, 05, Daniel Radcliffe, ID05_IM03.bmp, (-300, 300), Ryan Reynolds, (550, -100), Ben Stiller, (-550, -100), Robert Downey Jr, (0, -400), Leonardo DiCaprio, (300, 300), Daniel Radcliffe, [-176.  323.], 1, 2.030542799970135
sub-18, trial19, 15, Robert Downey Jr, ID15_IM04.bmp, (550, -100), Orlando Bloom, (300, 300), Brad Pitt, (-300, 300), Daniel Radcliffe, (0, -400), Elijah Wood, (-550, -100), Robert Downey Jr, [ 483. -110.], 1, 1.7876117000123486
sub-18, trial32, 14, Patrick Dempsey, ID14_IM02.bmp, (-550, -100), George Clooney, (550, -100), Justin Timberlake, (300, 300), Ryan Gosling, (-300, 300), Daniel Radcliffe, (0, -400), idk, [62. 84.], 0, 0.5149045999860391
sub-18, trial26, 14, Patrick Dempsey, ID14_IM03.bmp, (550, -100), Ben Stiller, (-550, -100), Leonardo DiCaprio, (300, 300), George Clooney, (0, -400), Orlando Bloom, (-300, 300), idk, [100.  48.], 0, 0.35534760006703436
sub-18, trial72, 07, George Clooney, ID07_IM04.bmp, (550, -100), Ryan Reynolds, (-300, 300), Justin Timberlake, (-550, -100), Hugh Jackman, (0, -400), Robert Pattinson, (300, 300), George Clooney, [462. -87.], 1, 1.3707824000157416
sub-18, trial33, 13, Orlando Bloom, ID13_IM01.bmp, (-300, 300), Daniel Radcliffe, (-550, -100), Matt Damon, (0, -400), Robert Downey Jr, (300, 300), Patrick Dempsey, (550, -100), Orlando Bloom, [-136.  270.], 1, 2.3698209000285715
sub-18, trial54, 18, Ryan Reynolds, ID18_IM04.bmp, (-550, -100), Ben Affleck, (0, -400), Patrick Dempsey, (-300, 300), Justin Timberlake, (550, -100), Ben Stiller, (300, 300), idk, [100.  54.], 0, 0.8245697000529617
sub-18, trial45, 09, Justin Timberlake, ID09_IM04.bmp, (-550, -100), Robert Pattinson, (0, -400), Ryan Gosling, (-300, 300), Ben Affleck, (550, -100), Orlando Bloom, (300, 300), idk, [116.  46.], 0, 0.4621597999939695
sub-18, trial22, 11, Leonardo DiCaprio, ID11_IM02.bmp, (-300, 300), Daniel Radcliffe, (0, -400), Robert Pattinson, (-550, -100), Robert Downey Jr, (550, -100), Ben Stiller, (300, 300), Leonardo DiCaprio, [-220.  301.], 1, 4.993668399984017
sub-18, trial25, 13, Orlando Bloom, ID13_IM02.bmp, (300, 300), Daniel Radcliffe, (550, -100), Brad Pitt, (0, -400), Ryan Gosling, (-300, 300), Patrick Dempsey, (-550, -100), Orlando Bloom, [369. 286.], 1, 2.326779600000009
sub-18, trial36, 07, George Clooney, ID07_IM03.bmp, (-300, 300), Robert Pattinson, (0, -400), Daniel Craig, (300, 300), Ryan Gosling, (550, -100), Ben Affleck, (-550, -100), George Clooney, [-155.  286.], 1, 1.5528575000353158
sub-18, trial46, 06, Elijah Wood, ID06_IM03.bmp, (-550, -100), Hugh Jackman, (300, 300), Ben Stiller, (550, -100), Ryan Reynolds, (0, -400), Keanu Reeves, (-300, 300), Elijah Wood, [-564.  -91.], 1, 3.807115500094369
sub-18, trial3, 13, Orlando Bloom, ID13_IM04.bmp, (550, -100), Ben Stiller, (300, 300), George Clooney, (-550, -100), Matt Damon, (0, -400), Leonardo DiCaprio, (-300, 300), Orlando Bloom, [450. -68.], 1, 3.11703339999076
sub-18, trial13, 02, Ben Stiller, ID02_IM03.bmp, (550, -100), Ryan Reynolds, (-300, 300), Keanu Reeves, (300, 300), George Clooney, (-550, -100), Robert Pattinson, (0, -400), idk, [32. 46.], 0, 0.6624127000104636
sub-18, trial27, 04, Daniel Craig, ID04_IM02.bmp, (-550, -100), Patrick Dempsey, (0, -400), Leonardo DiCaprio, (-300, 300), Keanu Reeves, (300, 300), Orlando Bloom, (550, -100), Daniel Craig, [-508. -118.], 1, 14.073852799949236
sub-18, trial51, 18, Ryan Reynolds, ID18_IM02.bmp, (550, -100), Ryan Gosling, (-300, 300), Ben Stiller, (-550, -100), Elijah Wood, (0, -400), Orlando Bloom, (300, 300), idk, [ 5. 45.], 0, 0.42120330000761896
sub-18, trial1, 17, Ryan Gosling, ID17_IM02.bmp, (300, 300), Robert Pattinson, (-550, -100), Justin Timberlake, (550, -100), Daniel Craig, (-300, 300), Matt Damon, (0, -400), idk, [91. 53.], 0, 0.32922810001764446
sub-18, trial55, 10, Keanu Reeves, ID10_IM02.bmp, (-550, -100), Ryan Gosling, (0, -400), Ben Stiller, (550, -100), Robert Pattinson, (-300, 300), Elijah Wood, (300, 300), Keanu Reeves, [-506. -134.], 1, 2.074051999952644
sub-18, trial17, 12, Matt Damon, ID12_IM02.bmp, (-300, 300), Ben Stiller, (300, 300), Ryan Gosling, (0, -400), Brad Pitt, (-550, -100), George Clooney, (550, -100), idk, [-6. 59.], 0, 0.5569721000501886
