subject,trial,celeb_id,celeb_name,celeb_image,celeb_position,rand0_name,rand0_pos,rand1_name,rand1_pos,rand2_name,rand2_pos,rand3_name,rand3_pos,answer_celeb,answer_position,correct,rt
sub-17, trial53, 12, Matt Damon, ID12_IM04.bmp, (300, 300), Orlando Bloom, (-550, -100), Brad Pitt, (0, -400), Keanu Reeves, (550, -100), Robert Pattinson, (-300, 300), idk, [10. 53.], 0, 5.514708300004713
sub-17, trial11, 03, Brad Pitt, ID03_IM03.bmp, (300, 300), Ben Stiller, (-550, -100), Keanu Reeves, (550, -100), Matt Damon, (-300, 300), Ryan Gosling, (0, -400), Brad Pitt, [314. 314.], 1, 2.371499400003813
sub-17, trial66, 15, Robert Downey Jr, ID15_IM01.bmp, (-300, 300), Keanu Reeves, (0, -400), Hugh Jackman, (550, -100), Ben Affleck, (-550, -100), Robert Pattinson, (300, 300), familiar face, [ 57. -94.], 1, 10.082336399937049
sub-17, trial39, 15, Robert Downey Jr, ID15_IM02.bmp, (550, -100), Matt Damon, (0, -400), Ben Affleck, (-300, 300), Ben Stiller, (300, 300), Leonardo DiCaprio, (-550, -100), familiar face, [ 28. -98.], 1, 4.357147000031546
sub-17, trial59, 05, Daniel Radcliffe, ID05_IM02.bmp, (300, 300), Robert Pattinson, (550, -100), George Clooney, (-550, -100), Ryan Gosling, (-300, 300), Ben Affleck, (0, -400), Daniel Radcliffe, [237. 300.], 1, 2.7888320999918506
sub-17, trial21, 01, Ben Affleck, ID01_IM02.bmp, (300, 300), Leonardo DiCaprio, (-300, 300), Ryan Reynolds, (550, -100), Keanu Reeves, (-550, -100), Elijah Wood, (0, -400), idk, [ 2. 59.], 0, 2.5873080999590456
sub-17, trial62, 16, Robert Pattinson, ID16_IM01.bmp, (-550, -100), Hugh Jackman, (0, -400), Elijah Wood, (550, -100), Robert Downey Jr, (-300, 300), Leonardo DiCaprio, (300, 300), Robert Pattinson, [-488.  -80.], 1, 1.3368352999677882
sub-17, trial20, 11, Leonardo DiCaprio, ID11_IM02.bmp, (0, -400), Robert Downey Jr, (-300, 300), Matt Damon, (300, 300), Ben Affleck, (-550, -100), Keanu Reeves, (550, -100), Leonardo DiCaprio, [  99. -381.], 1, 1.5865970000158995
sub-17, trial15, 02, Ben Stiller, ID02_IM02.bmp, (0, -400), George Clooney, (300, 300), Ben Affleck, (-550, -100), Robert Downey Jr, (550, -100), Ryan Reynolds, (-300, 300), Ben Stiller, [  -7. -383.], 1, 6.736505400040187
sub-17, trial5, 04, Daniel Craig, ID04_IM01.bmp, (0, -400), Elijah Wood, (300, 300), Ryan Reynolds, (-300, 300), Daniel Radcliffe, (550, -100), Leonardo DiCaprio, (-550, -100), familiar face, [  40. -113.], 1, 8.666475599980913
sub-17, trial64, 17, Ryan Gosling, ID17_IM04.bmp, (300, 300), Brad Pitt, (-300, 300), Robert Pattinson, (0, -400), Patrick Dempsey, (-550, -100), Orlando Bloom, (550, -100), idk, [24. 68.], 0, 5.283647500094958
sub-17, trial41, 13, Orlando Bloom, ID13_IM03.bmp, (-300, 300), Patrick Dempsey, (550, -100), Brad Pitt, (0, -400), Matt Damon, (300, 300), Daniel Craig, (-550, -100), familiar face, [ -25. -120.], 1, 2.214578300016001
sub-17, trial47, 12, Matt Damon, ID12_IM01.bmp, (-550, -100), Leonardo DiCaprio, (550, -100), Elijah Wood, (300, 300), Justin Timberlake, (-300, 300), Ryan Gosling, (0, -400), idk, [21. 65.], 0, 1.108118599979207
sub-17, trial50, 04, Daniel Craig, ID04_IM04.bmp, (0, -400), Matt Damon, (-300, 300), Justin Timberlake, (550, -100), Brad Pitt, (-550, -100), Elijah Wood, (300, 300), Daniel Craig, [  71. -394.], 1, 6.213920600013807
sub-17, trial3, 06, Elijah Wood, ID06_IM01.bmp, (-550, -100), Matt Damon, (-300, 300), Robert Downey Jr, (300, 300), Hugh Jackman, (0, -400), Ryan Reynolds, (550, -100), familiar face, [ -26. -110.], 1, 10.450987900025211
sub-17, trial33, 01, Ben Affleck, ID01_IM04.bmp, (550, -100), Elijah Wood, (300, 300), Daniel Radcliffe, (-550, -100), Ben Stiller, (-300, 300), Robert Pattinson, (0, -400), idk, [-14.  52.], 0, 0.9988237000070512
sub-17, trial57, 10, Keanu Reeves, ID10_IM02.bmp, (300, 300), Daniel Craig, (-550, -100), Ryan Gosling, (-300, 300), Robert Pattinson, (550, -100), Ben Affleck, (0, -400), Keanu Reeves, [234. 308.], 1, 1.5085545000620186
sub-17, trial16, 06, Elijah Wood, ID06_IM04.bmp, (0, -400), Robert Pattinson, (300, 300), Hugh Jackman, (-550, -100), Justin Timberlake, (-300, 300), Ben Affleck, (550, -100), familiar face, [   7. -133.], 1, 2.9821882999967784
sub-17, trial14, 13, Orlando Bloom, ID13_IM01.bmp, (550, -100), George Clooney, (-300, 300), Elijah Wood, (300, 300), Matt Damon, (-550, -100), Hugh Jackman, (0, -400), familiar face, [   7. -133.], 1, 4.515045200008899
sub-17, trial31, 05, Daniel Radcliffe, ID05_IM04.bmp, (-550, -100), Daniel Craig, (550, -100), Matt Damon, (0, -400), Robert Pattinson, (-300, 300), Patrick Dempsey, (300, 300), Daniel Radcliffe, [-458.  -73.], 1, 1.0374345999443904
sub-17, trial72, 01, Ben Affleck, ID01_IM03.bmp, (300, 300), Leonardo DiCaprio, (550, -100), Keanu Reeves, (-550, -100), Ben Stiller, (0, -400), Justin Timberlake, (-300, 300), idk, [28. 60.], 0, 1.9060939999762923
sub-17, trial9, 16, Robert Pattinson, ID16_IM02.bmp, (-550, -100), Elijah Wood, (300, 300), Robert Downey Jr, (0, -400), Daniel Radcliffe, (550, -100), Hugh Jackman, (-300, 300), Robert Pattinson, [-422.  -76.], 1, 0.820741199888289
sub-17, trial49, 18, Ryan Reynolds, ID18_IM02.bmp, (-300, 300), Brad Pitt, (-550, -100), Ben Affleck, (550, -100), Justin Timberlake, (300, 300), Elijah Wood, (0, -400), Ryan Reynolds, [-294.  297.], 1, 3.2479678000090644
sub-17, trial13, 14, Patrick Dempsey, ID14_IM04.bmp, (-300, 300), Ryan Reynolds, (550, -100), Matt Damon, (-550, -100), Daniel Craig, (0, -400), Robert Pattinson, (300, 300), familiar face, [ -69. -106.], 1, 4.900656000012532
sub-17, trial67, 09, Justin Timberlake, ID09_IM01.bmp, (-550, -100), Hugh Jackman, (0, -400), Robert Downey Jr, (550, -100), Elijah Wood, (300, 300), Ben Stiller, (-300, 300), idk, [-50.  61.], 0, 0.6787560998927802
sub-17, trial2, 05, Daniel Radcliffe, ID05_IM01.bmp, (550, -100), Hugh Jackman, (300, 300), Brad Pitt, (-300, 300), Ryan Gosling, (0, -400), Robert Downey Jr, (-550, -100), Daniel Radcliffe, [ 468. -141.], 1, 1.681709900032729
sub-17, trial6, 07, George Clooney, ID07_IM02.bmp, (550, -100), Robert Pattinson, (-300, 300), Ryan Reynolds, (-550, -100), Daniel Craig, (300, 300), Justin Timberlake, (0, -400), George Clooney, [433. -65.], 1, 3.8684735000133514
sub-17, trial52, 12, Matt Damon, ID12_IM02.bmp, (300, 300), Patrick Dempsey, (-550, -100), Daniel Radcliffe, (0, -400), Ben Stiller, (550, -100), Orlando Bloom, (-300, 300), idk, [-79.  59.], 0, 1.1594922000076622
sub-17, trial34, 03, Brad Pitt, ID03_IM04.bmp, (-550, -100), Elijah Wood, (300, 300), Ryan Reynolds, (0, -400), Robert Pattinson, (-300, 300), Hugh Jackman, (550, -100), Brad Pitt, [-493.  -80.], 1, 2.1589377999771386
sub-17, trial68, 08, Hugh Jackman, ID08_IM02.bmp, (-300, 300), Daniel Radcliffe, (-550, -100), Robert Downey Jr, (550, -100), Elijah Wood, (300, 300), Leonardo DiCaprio, (0, -400), idk, [-20.  63.], 0, 1.1101238999981433
sub-17, trial60, 14, Patrick Dempsey, ID14_IM03.bmp, (0, -400), Orlando Bloom, (300, 300), Ben Stiller, (-550, -100), Elijah Wood, (-300, 300), Keanu Reeves, (550, -100), familiar face, [-24. -90.], 1, 11.759729400044307
sub-17, trial1, 03, Brad Pitt, ID03_IM01.bmp, (300, 300), Robert Pattinson, (0, -400), Ryan Gosling, (-300, 300), Elijah Wood, (-550, -100), Patrick Dempsey, (550, -100), Brad Pitt, [304. 305.], 1, 2.3750723999692127
sub-17, trial51, 05, Daniel Radcliffe, ID05_IM03.bmp, (0, -400), Leonardo DiCaprio, (550, -100), Orlando Bloom, (300, 300), Ben Stiller, (-300, 300), George Clooney, (-550, -100), Daniel Radcliffe, [  76. -414.], 1, 1.6938424999825656
sub-17, trial26, 14, Patrick Dempsey, ID14_IM02.bmp, (550, -100), Ryan Gosling, (300, 300), Ben Stiller, (-550, -100), Ryan Reynolds, (-300, 300), Elijah Wood, (0, -400), familiar face, [  40. -105.], 1, 4.72831789997872
sub-17, trial7, 11, Leonardo DiCaprio, ID11_IM04.bmp, (300, 300), Matt Damon, (-550, -100), Ben Stiller, (-300, 300), Ben Affleck, (0, -400), Ryan Gosling, (550, -100), Leonardo DiCaprio, [275. 285.], 1, 1.4410112999612466
sub-17, trial45, 11, Leonardo DiCaprio, ID11_IM03.bmp, (550, -100), Ryan Gosling, (0, -400), Daniel Radcliffe, (300, 300), Hugh Jackman, (-300, 300), Patrick Dempsey, (-550, -100), Leonardo DiCaprio, [ 427. -133.], 1, 1.8930031000636518
sub-17, trial46, 17, Ryan Gosling, ID17_IM01.bmp, (-550, -100), Matt Damon, (300, 300), George Clooney, (-300, 300), Leonardo DiCaprio, (0, -400), Brad Pitt, (550, -100), idk, [53. 55.], 0, 0.9918031999841332
sub-17, trial19, 09, Justin Timberlake, ID09_IM04.bmp, (-300, 300), Daniel Craig, (550, -100), Ben Stiller, (-550, -100), Brad Pitt, (300, 300), Keanu Reeves, (0, -400), idk, [52. 55.], 0, 0.4616786000551656
sub-17, trial25, 07, George Clooney, ID07_IM04.bmp, (-300, 300), Robert Downey Jr, (0, -400), Orlando Bloom, (300, 300), Brad Pitt, (550, -100), Daniel Radcliffe, (-550, -100), George Clooney, [-267.  305.], 1, 1.2566997000249103
sub-17, trial61, 09, Justin Timberlake, ID09_IM02.bmp, (300, 300), Hugh Jackman, (550, -100), Ryan Gosling, (-550, -100), Ben Stiller, (0, -400), Daniel Craig, (-300, 300), idk, [-6. 62.], 0, 1.8604070999426767
sub-17, trial54, 17, Ryan Gosling, ID17_IM03.bmp, (550, -100), George Clooney, (0, -400), Robert Pattinson, (300, 300), Ben Affleck, (-300, 300), Patrick Dempsey, (-550, -100), familiar face, [ 16. -98.], 1, 1.5671289999736473
sub-17, trial12, 15, Robert Downey Jr, ID15_IM03.bmp, (0, -400), Daniel Radcliffe, (550, -100), Orlando Bloom, (-300, 300), Elijah Wood, (300, 300), Ryan Gosling, (-550, -100), familiar face, [ 12. -87.], 1, 2.7264740000246093
sub-17, trial8, 08, Hugh Jackman, ID08_IM01.bmp, (550, -100), Ben Affleck, (0, -400), Elijah Wood, (-300, 300), Keanu Reeves, (300, 300), Patrick Dempsey, (-550, -100), idk, [14. 49.], 0, 0.6399810999864712
sub-17, trial30, 02, Ben Stiller, ID02_IM03.bmp, (0, -400), Brad Pitt, (300, 300), Leonardo DiCaprio, (-300, 300), Matt Damon, (-550, -100), Elijah Wood, (550, -100), familiar face, [  -1. -105.], 1, 2.4999960999703035
sub-17, trial23, 13, Orlando Bloom, ID13_IM04.bmp, (-300, 300), Ben Affleck, (300, 300), Justin Timberlake, (-550, -100), Robert Pattinson, (550, -100), Elijah Wood, (0, -400), familiar face, [  -1. -105.], 1, 6.084219599957578
sub-17, trial28, 03, Brad Pitt, ID03_IM02.bmp, (0, -400), George Clooney, (300, 300), Daniel Craig, (550, -100), Elijah Wood, (-550, -100), Ben Stiller, (-300, 300), Brad Pitt, [  76. -405.], 1, 1.7679950000019744
sub-17, trial56, 18, Ryan Reynolds, ID18_IM03.bmp, (550, -100), Matt Damon, (0, -400), Elijah Wood, (-300, 300), Ben Affleck, (300, 300), Ryan Gosling, (-550, -100), familiar face, [ 139. -117.], 1, 7.843015099992044
sub-17, trial36, 02, Ben Stiller, ID02_IM01.bmp, (0, -400), Daniel Craig, (300, 300), Robert Downey Jr, (-550, -100), Ben Affleck, (-300, 300), Hugh Jackman, (550, -100), familiar face, [ 139. -117.], 1, 1.138095600064844
sub-17, trial71, 10, Keanu Reeves, ID10_IM01.bmp, (-550, -100), Elijah Wood, (-300, 300), Ryan Gosling, (0, -400), Leonardo DiCaprio, (550, -100), Ryan Reynolds, (300, 300), idk, [-3. 52.], 0, 4.7800156000303105
sub-17, trial69, 07, George Clooney, ID07_IM01.bmp, (-300, 300), Ryan Gosling, (300, 300), Leonardo DiCaprio, (0, -400), Daniel Craig, (-550, -100), Ryan Reynolds, (550, -100), George Clooney, [-256.  303.], 1, 2.26671570003964
sub-17, trial38, 18, Ryan Reynolds, ID18_IM04.bmp, (0, -400), Ben Affleck, (-550, -100), George Clooney, (-300, 300), Leonardo DiCaprio, (300, 300), Daniel Craig, (550, -100), familiar face, [  24. -124.], 1, 1.566427499987185
sub-17, trial48, 08, Hugh Jackman, ID08_IM04.bmp, (-300, 300), Orlando Bloom, (0, -400), Daniel Craig, (300, 300), Robert Downey Jr, (-550, -100), Patrick Dempsey, (550, -100), idk, [24. 79.], 0, 0.5253382999217138
sub-17, trial44, 10, Keanu Reeves, ID10_IM03.bmp, (-550, -100), Ryan Reynolds, (550, -100), Daniel Craig, (300, 300), Matt Damon, (0, -400), Robert Downey Jr, (-300, 300), Keanu Reeves, [-466.  -84.], 1, 0.6454365999670699
sub-17, trial37, 14, Patrick Dempsey, ID14_IM01.bmp, (0, -400), George Clooney, (-300, 300), Robert Downey Jr, (-550, -100), Hugh Jackman, (300, 300), Orlando Bloom, (550, -100), familiar face, [  48. -107.], 1, 3.538446499966085
sub-17, trial58, 01, Ben Affleck, ID01_IM01.bmp, (-300, 300), Elijah Wood, (300, 300), Ben Stiller, (550, -100), Hugh Jackman, (0, -400), Daniel Radcliffe, (-550, -100), idk, [ 5. 64.], 0, 1.1141511000460014
sub-17, trial40, 07, George Clooney, ID07_IM03.bmp, (550, -100), Matt Damon, (-550, -100), Ryan Reynolds, (-300, 300), Robert Downey Jr, (0, -400), Ryan Gosling, (300, 300), George Clooney, [ 431. -113.], 1, 1.523934500059113
sub-17, trial42, 09, Justin Timberlake, ID09_IM03.bmp, (-550, -100), Elijah Wood, (0, -400), Patrick Dempsey, (300, 300), Matt Damon, (-300, 300), Hugh Jackman, (550, -100), idk, [11. 68.], 0, 3.0525171000044793
sub-17, trial18, 08, Hugh Jackman, ID08_IM03.bmp, (-300, 300), Elijah Wood, (0, -400), Ryan Reynolds, (550, -100), Orlando Bloom, (-550, -100), Robert Downey Jr, (300, 300), familiar face, [ -9. -89.], 1, 2.359383799950592
sub-17, trial22, 06, Elijah Wood, ID06_IM03.bmp, (550, -100), Matt Damon, (0, -400), Hugh Jackman, (300, 300), Ryan Gosling, (-550, -100), Ben Stiller, (-300, 300), familiar face, [ -9. -89.], 1, 2.5492119999835268
sub-17, trial35, 04, Daniel Craig, ID04_IM02.bmp, (-300, 300), Ryan Gosling, (300, 300), Hugh Jackman, (-550, -100), Daniel Radcliffe, (0, -400), George Clooney, (550, -100), Daniel Craig, [-211.  296.], 1, 1.5983483999734744
sub-17, trial10, 16, Robert Pattinson, ID16_IM04.bmp, (300, 300), Robert Downey Jr, (-550, -100), Ben Stiller, (550, -100), George Clooney, (-300, 300), Hugh Jackman, (0, -400), Robert Pattinson, [241. 277.], 1, 1.9235555999912322
sub-17, trial27, 12, Matt Damon, ID12_IM03.bmp, (0, -400), Daniel Radcliffe, (-550, -100), Patrick Dempsey, (-300, 300), Robert Pattinson, (550, -100), Leonardo DiCaprio, (300, 300), idk, [ 2. 66.], 0, 0.46042439993470907
sub-17, trial17, 13, Orlando Bloom, ID13_IM02.bmp, (-300, 300), Robert Downey Jr, (0, -400), Ryan Gosling, (550, -100), Matt Damon, (300, 300), Patrick Dempsey, (-550, -100), familiar face, [  29. -127.], 1, 1.5755708999931812
sub-17, trial70, 02, Ben Stiller, ID02_IM04.bmp, (0, -400), Elijah Wood, (550, -100), Daniel Radcliffe, (-550, -100), Ben Affleck, (300, 300), Leonardo DiCaprio, (-300, 300), familiar face, [  29. -125.], 1, 0.9022367000579834
sub-17, trial55, 11, Leonardo DiCaprio, ID11_IM01.bmp, (300, 300), Orlando Bloom, (-550, -100), Matt Damon, (-300, 300), Robert Downey Jr, (0, -400), Daniel Craig, (550, -100), Leonardo DiCaprio, [345. 300.], 1, 1.7198018999770284
sub-17, trial63, 16, Robert Pattinson, ID16_IM03.bmp, (-550, -100), Ryan Gosling, (0, -400), Brad Pitt, (550, -100), Hugh Jackman, (300, 300), Robert Downey Jr, (-300, 300), Robert Pattinson, [-464. -107.], 1, 1.3605749000562355
sub-17, trial24, 15, Robert Downey Jr, ID15_IM04.bmp, (-300, 300), Daniel Radcliffe, (300, 300), Ben Affleck, (550, -100), Brad Pitt, (-550, -100), Robert Pattinson, (0, -400), familiar face, [ -52. -120.], 1, 1.9373258999548852
sub-17, trial32, 06, Elijah Wood, ID06_IM02.bmp, (300, 300), Leonardo DiCaprio, (-300, 300), Brad Pitt, (0, -400), Daniel Craig, (-550, -100), Hugh Jackman, (550, -100), familiar face, [ -52. -120.], 1, 0.3994772000005469
sub-17, trial4, 04, Daniel Craig, ID04_IM03.bmp, (-550, -100), Elijah Wood, (300, 300), Ryan Gosling, (0, -400), Robert Downey Jr, (-300, 300), Keanu Reeves, (550, -100), Daniel Craig, [-443.  -72.], 1, 0.9748813000041991
sub-17, trial29, 18, Ryan Reynolds, ID18_IM01.bmp, (300, 300), Keanu Reeves, (550, -100), Leonardo DiCaprio, (0, -400), Ben Stiller, (-300, 300), Justin Timberlake, (-550, -100), familiar face, [ 22. -92.], 1, 0.9973528999835253
sub-17, trial43, 17, Ryan Gosling, ID17_IM02.bmp, (-550, -100), Leonardo DiCaprio, (0, -400), Justin Timberlake, (300, 300), Brad Pitt, (550, -100), Robert Pattinson, (-300, 300), idk, [51. 63.], 0, 0.6035800999961793
sub-17, trial65, 10, Keanu Reeves, ID10_IM04.bmp, (-550, -100), Matt Damon, (-300, 300), Elijah Wood, (550, -100), Daniel Craig, (300, 300), Brad Pitt, (0, -400), Keanu Reeves, [-482.  -79.], 1, 0.8654808999272063
