subject,trial,celeb_id,celeb_name,celeb_image,celeb_position,rand0_name,rand0_pos,rand1_name,rand1_pos,rand2_name,rand2_pos,rand3_name,rand3_pos,answer_celeb,answer_position,correct,rt
sub-24, trial43, 09, Justin Timberlake, ID09_IM01.bmp, (550, -100), Robert Downey Jr, (300, 300), Ryan Gosling, (-300, 300), Daniel Radcliffe, (0, -400), Keanu Reeves, (-550, -100), Justin Timberlake, [ 547. -110.], 1, 5.56069009998464
sub-24, trial13, 02, Ben Stiller, ID02_IM01.bmp, (-300, 300), Leonardo DiCaprio, (-550, -100), Matt Damon, (300, 300), Patrick Dempsey, (0, -400), Orlando Bloom, (550, -100), familiar face, [  70. -139.], 1, 6.344446200004313
sub-24, trial71, 05, Daniel Radcliffe, ID05_IM01.bmp, (-300, 300), Ben Stiller, (550, -100), Keanu Reeves, (300, 300), Ryan Gosling, (0, -400), Justin Timberlake, (-550, -100), familiar face, [ 41. -84.], 1, 43.07998690000386
sub-24, trial67, 16, Robert Pattinson, ID16_IM03.bmp, (0, -400), Daniel Radcliffe, (-300, 300), Elijah Wood, (550, -100), Orlando Bloom, (300, 300), Leonardo DiCaprio, (-550, -100), Robert Pattinson, [  68. -379.], 1, 3.115044100006344
sub-24, trial66, 10, Keanu Reeves, ID10_IM02.bmp, (-550, -100), Daniel Craig, (300, 300), Robert Pattinson, (0, -400), Orlando Bloom, (-300, 300), Elijah Wood, (550, -100), familiar face, [  72. -101.], 1, 8.148161999997683
sub-24, trial69, 11, Leonardo DiCaprio, ID11_IM02.bmp, (-550, -100), Ryan Reynolds, (550, -100), Daniel Radcliffe, (-300, 300), Hugh Jackman, (0, -400), Elijah Wood, (300, 300), Leonardo DiCaprio, [-428.  -93.], 1, 0.9881990000139922
sub-24, trial36, 14, Patrick Dempsey, ID14_IM04.bmp, (0, -400), Robert Downey Jr, (-300, 300), Orlando Bloom, (-550, -100), Matt Damon, (550, -100), Leonardo DiCaprio, (300, 300), Patrick Dempsey, [  49. -403.], 1, 28.45168040000135
sub-24, trial9, 06, Elijah Wood, ID06_IM04.bmp, (0, -400), Ryan Reynolds, (300, 300), Leonardo DiCaprio, (550, -100), Hugh Jackman, (-550, -100), Orlando Bloom, (-300, 300), familiar face, [  56. -138.], 1, 1.2548069000185933
sub-24, trial24, 12, Matt Damon, ID12_IM02.bmp, (0, -400), Elijah Wood, (-300, 300), Ben Affleck, (-550, -100), Hugh Jackman, (300, 300), Robert Pattinson, (550, -100), familiar face, [  56. -114.], 1, 0.8438780000142287
sub-24, trial42, 03, Brad Pitt, ID03_IM03.bmp, (0, -400), Daniel Craig, (550, -100), Orlando Bloom, (-550, -100), Daniel Radcliffe, (-300, 300), Ben Affleck, (300, 300), Brad Pitt, [  14. -378.], 1, 2.182765300007304
sub-24, trial53, 17, Ryan Gosling, ID17_IM04.bmp, (300, 300), Ben Stiller, (550, -100), Hugh Jackman, (0, -400), Justin Timberlake, (-300, 300), Brad Pitt, (-550, -100), idk, [38. 66.], 0, 16.229173500003526
sub-24, trial21, 02, Ben Stiller, ID02_IM03.bmp, (300, 300), Orlando Bloom, (0, -400), Brad Pitt, (-300, 300), Ryan Reynolds, (550, -100), Elijah Wood, (-550, -100), familiar face, [  54. -120.], 1, 4.778039800003171
sub-24, trial63, 14, Patrick Dempsey, ID14_IM02.bmp, (550, -100), Ryan Reynolds, (300, 300), Daniel Craig, (0, -400), Ben Stiller, (-300, 300), Robert Downey Jr, (-550, -100), Patrick Dempsey, [ 447. -122.], 1, 7.320897600002354
sub-24, trial19, 17, Ryan Gosling, ID17_IM01.bmp, (550, -100), Orlando Bloom, (0, -400), Ben Stiller, (300, 300), Daniel Radcliffe, (-300, 300), Keanu Reeves, (-550, -100), idk, [58. 45.], 0, 1.633670200011693
sub-24, trial60, 15, Robert Downey Jr, ID15_IM02.bmp, (550, -100), Keanu Reeves, (-300, 300), Patrick Dempsey, (0, -400), Elijah Wood, (300, 300), Robert Pattinson, (-550, -100), Robert Downey Jr, [ 461. -115.], 1, 17.80719239998143
sub-24, trial37, 02, Ben Stiller, ID02_IM02.bmp, (300, 300), Ryan Reynolds, (0, -400), Hugh Jackman, (-550, -100), Matt Damon, (550, -100), Elijah Wood, (-300, 300), idk, [107.  51.], 0, 6.659649900015211
sub-24, trial46, 07, George Clooney, ID07_IM04.bmp, (0, -400), Elijah Wood, (550, -100), Hugh Jackman, (-550, -100), Robert Downey Jr, (-300, 300), Patrick Dempsey, (300, 300), George Clooney, [  97. -391.], 1, 2.4873489999736194
sub-24, trial18, 13, Orlando Bloom, ID13_IM03.bmp, (0, -400), Ryan Gosling, (-300, 300), Daniel Craig, (300, 300), Matt Damon, (-550, -100), Justin Timberlake, (550, -100), idk, [150.  74.], 0, 1.5463130999996793
sub-24, trial72, 04, Daniel Craig, ID04_IM02.bmp, (0, -400), Ben Affleck, (-300, 300), Hugh Jackman, (300, 300), Orlando Bloom, (550, -100), Leonardo DiCaprio, (-550, -100), familiar face, [  75. -110.], 1, 12.073234100011177
sub-24, trial33, 04, Daniel Craig, ID04_IM01.bmp, (-550, -100), George Clooney, (0, -400), Robert Downey Jr, (-300, 300), Robert Pattinson, (550, -100), Elijah Wood, (300, 300), familiar face, [  86. -106.], 1, 4.211959000007482
sub-24, trial39, 04, Daniel Craig, ID04_IM04.bmp, (-300, 300), Leonardo DiCaprio, (300, 300), Robert Downey Jr, (550, -100), Ben Affleck, (-550, -100), Patrick Dempsey, (0, -400), familiar face, [  49. -114.], 1, 15.88124489999609
sub-24, trial14, 15, Robert Downey Jr, ID15_IM04.bmp, (0, -400), Orlando Bloom, (300, 300), Leonardo DiCaprio, (-550, -100), Daniel Radcliffe, (-300, 300), Robert Pattinson, (550, -100), Robert Downey Jr, [   5. -388.], 1, 5.4435235999990255
sub-24, trial27, 10, Keanu Reeves, ID10_IM03.bmp, (0, -400), Hugh Jackman, (-550, -100), Brad Pitt, (-300, 300), Robert Downey Jr, (550, -100), Ben Affleck, (300, 300), idk, [60. 50.], 0, 1.1676918000157457
sub-24, trial55, 10, Keanu Reeves, ID10_IM01.bmp, (-550, -100), Patrick Dempsey, (-300, 300), Ryan Reynolds, (550, -100), Robert Pattinson, (300, 300), Robert Downey Jr, (0, -400), idk, [123.  33.], 0, 0.9034573000099044
sub-24, trial16, 14, Patrick Dempsey, ID14_IM03.bmp, (300, 300), Leonardo DiCaprio, (550, -100), Orlando Bloom, (-300, 300), Brad Pitt, (0, -400), Matt Damon, (-550, -100), Patrick Dempsey, [277. 318.], 1, 2.1694236999901477
sub-24, trial34, 07, George Clooney, ID07_IM02.bmp, (-300, 300), Justin Timberlake, (300, 300), Ben Stiller, (550, -100), Elijah Wood, (0, -400), Ryan Reynolds, (-550, -100), George Clooney, [-237.  300.], 1, 2.0398835000232793
sub-24, trial2, 06, Elijah Wood, ID06_IM03.bmp, (300, 300), Justin Timberlake, (-550, -100), Hugh Jackman, (0, -400), Robert Pattinson, (550, -100), Matt Damon, (-300, 300), idk, [58. 47.], 0, 1.7967027999984566
sub-24, trial44, 02, Ben Stiller, ID02_IM04.bmp, (-300, 300), Patrick Dempsey, (-550, -100), Justin Timberlake, (300, 300), Daniel Craig, (0, -400), Ryan Gosling, (550, -100), Ben Stiller, [-184.  273.], 1, 6.69017950000125
sub-24, trial65, 03, Brad Pitt, ID03_IM04.bmp, (-300, 300), Elijah Wood, (300, 300), Keanu Reeves, (550, -100), Robert Downey Jr, (-550, -100), Daniel Craig, (0, -400), Brad Pitt, [-187.  289.], 1, 3.60383589999401
sub-24, trial54, 16, Robert Pattinson, ID16_IM01.bmp, (0, -400), Justin Timberlake, (550, -100), Orlando Bloom, (-300, 300), Hugh Jackman, (300, 300), Ben Stiller, (-550, -100), Robert Pattinson, [ -31. -384.], 1, 2.425121800013585
sub-24, trial51, 13, Orlando Bloom, ID13_IM04.bmp, (-550, -100), Leonardo DiCaprio, (550, -100), Ben Affleck, (0, -400), Justin Timberlake, (-300, 300), Robert Pattinson, (300, 300), idk, [-5. 83.], 0, 1.4376260999997612
sub-24, trial48, 12, Matt Damon, ID12_IM04.bmp, (0, -400), Orlando Bloom, (300, 300), Elijah Wood, (-300, 300), Ben Stiller, (550, -100), Ben Affleck, (-550, -100), idk, [39. 61.], 0, 1.0504327999951784
sub-24, trial22, 17, Ryan Gosling, ID17_IM03.bmp, (-300, 300), Leonardo DiCaprio, (550, -100), Patrick Dempsey, (300, 300), Keanu Reeves, (-550, -100), George Clooney, (0, -400), Ryan Gosling, [-221.  282.], 1, 4.757748200005153
sub-24, trial56, 01, Ben Affleck, ID01_IM02.bmp, (0, -400), Ryan Gosling, (550, -100), Daniel Craig, (300, 300), Patrick Dempsey, (-550, -100), Elijah Wood, (-300, 300), idk, [70. 51.], 0, 0.917922400025418
sub-24, trial11, 06, Elijah Wood, ID06_IM01.bmp, (-300, 300), Orlando Bloom, (0, -400), George Clooney, (300, 300), Hugh Jackman, (-550, -100), Robert Downey Jr, (550, -100), idk, [92. 57.], 0, 0.8057634999859147
sub-24, trial62, 09, Justin Timberlake, ID09_IM04.bmp, (0, -400), Brad Pitt, (-300, 300), Daniel Craig, (550, -100), Ryan Gosling, (300, 300), Ben Stiller, (-550, -100), Justin Timberlake, [  45. -385.], 1, 2.3877830000128597
sub-24, trial68, 08, Hugh Jackman, ID08_IM04.bmp, (0, -400), Daniel Radcliffe, (-300, 300), Patrick Dempsey, (300, 300), Robert Pattinson, (550, -100), Justin Timberlake, (-550, -100), Justin Timberlake, [-411. -108.], 0, 10.29081760000554
sub-24, trial3, 06, Elijah Wood, ID06_IM02.bmp, (-300, 300), Leonardo DiCaprio, (550, -100), George Clooney, (300, 300), Brad Pitt, (-550, -100), Ben Affleck, (0, -400), idk, [-56.  51.], 0, 1.10816010000417
sub-24, trial47, 17, Ryan Gosling, ID17_IM02.bmp, (-300, 300), Keanu Reeves, (0, -400), Hugh Jackman, (550, -100), George Clooney, (300, 300), Ryan Reynolds, (-550, -100), familiar face, [   8. -119.], 1, 6.453536799992435
sub-24, trial32, 16, Robert Pattinson, ID16_IM02.bmp, (300, 300), Brad Pitt, (550, -100), Daniel Craig, (0, -400), Matt Damon, (-550, -100), Patrick Dempsey, (-300, 300), Robert Pattinson, [197. 294.], 1, 2.1611059000133537
sub-24, trial26, 15, Robert Downey Jr, ID15_IM03.bmp, (300, 300), Matt Damon, (0, -400), Ryan Gosling, (-550, -100), Ben Affleck, (-300, 300), Justin Timberlake, (550, -100), Robert Downey Jr, [257. 308.], 1, 2.5368957000027876
sub-24, trial12, 08, Hugh Jackman, ID08_IM03.bmp, (0, -400), Brad Pitt, (-300, 300), Daniel Radcliffe, (550, -100), Keanu Reeves, (-550, -100), Ryan Gosling, (300, 300), idk, [111.  45.], 0, 0.9528235000034329
sub-24, trial50, 01, Ben Affleck, ID01_IM03.bmp, (550, -100), Robert Downey Jr, (300, 300), Ryan Reynolds, (-550, -100), Patrick Dempsey, (0, -400), Justin Timberlake, (-300, 300), idk, [97. 64.], 0, 1.0412384000082966
sub-24, trial41, 04, Daniel Craig, ID04_IM03.bmp, (300, 300), Ben Stiller, (550, -100), Daniel Radcliffe, (0, -400), Matt Damon, (-550, -100), Keanu Reeves, (-300, 300), familiar face, [ 79. -99.], 1, 6.013274900004035
sub-24, trial25, 13, Orlando Bloom, ID13_IM01.bmp, (300, 300), Matt Damon, (0, -400), Daniel Radcliffe, (-300, 300), Justin Timberlake, (550, -100), Brad Pitt, (-550, -100), idk, [40. 69.], 0, 0.7862983999948483
sub-24, trial29, 16, Robert Pattinson, ID16_IM04.bmp, (300, 300), Ben Stiller, (0, -400), Orlando Bloom, (550, -100), Elijah Wood, (-300, 300), Ryan Reynolds, (-550, -100), Robert Pattinson, [302. 323.], 1, 1.3680288000032306
sub-24, trial7, 05, Daniel Radcliffe, ID05_IM02.bmp, (0, -400), Ben Stiller, (550, -100), George Clooney, (-300, 300), Robert Pattinson, (300, 300), Orlando Bloom, (-550, -100), Daniel Radcliffe, [  24. -399.], 1, 8.66858600001433
sub-24, trial1, 14, Patrick Dempsey, ID14_IM01.bmp, (550, -100), Leonardo DiCaprio, (-300, 300), Orlando Bloom, (-550, -100), Robert Pattinson, (300, 300), Robert Downey Jr, (0, -400), Patrick Dempsey, [ 435. -106.], 1, 3.090631300001405
sub-24, trial31, 18, Ryan Reynolds, ID18_IM03.bmp, (300, 300), Patrick Dempsey, (-550, -100), Keanu Reeves, (-300, 300), Ben Stiller, (550, -100), Daniel Radcliffe, (0, -400), Ryan Reynolds, [356. 301.], 1, 4.60428889998002
sub-24, trial23, 18, Ryan Reynolds, ID18_IM02.bmp, (550, -100), Matt Damon, (-550, -100), Robert Pattinson, (-300, 300), George Clooney, (0, -400), Ryan Gosling, (300, 300), Ryan Gosling, [356. 301.], 0, 0.624937399988994
sub-24, trial61, 11, Leonardo DiCaprio, ID11_IM01.bmp, (0, -400), Ryan Reynolds, (-300, 300), Elijah Wood, (300, 300), George Clooney, (550, -100), Ben Stiller, (-550, -100), Leonardo DiCaprio, [  29. -376.], 1, 2.7819857000140473
sub-24, trial30, 08, Hugh Jackman, ID08_IM02.bmp, (0, -400), Keanu Reeves, (550, -100), Justin Timberlake, (-300, 300), Ryan Gosling, (-550, -100), George Clooney, (300, 300), idk, [91. 38.], 0, 2.181979799992405
sub-24, trial57, 01, Ben Affleck, ID01_IM01.bmp, (-300, 300), George Clooney, (0, -400), Hugh Jackman, (-550, -100), Daniel Craig, (300, 300), Daniel Radcliffe, (550, -100), idk, [91. 38.], 0, 0.6339734000212047
sub-24, trial10, 05, Daniel Radcliffe, ID05_IM04.bmp, (-550, -100), Keanu Reeves, (550, -100), Ryan Gosling, (-300, 300), Leonardo DiCaprio, (300, 300), Justin Timberlake, (0, -400), Daniel Radcliffe, [-436.  -83.], 1, 5.240618699986953
sub-24, trial59, 11, Leonardo DiCaprio, ID11_IM04.bmp, (-550, -100), Elijah Wood, (300, 300), Daniel Radcliffe, (550, -100), Robert Pattinson, (0, -400), Robert Downey Jr, (-300, 300), Leonardo DiCaprio, [-434. -103.], 1, 2.7256470000138506
sub-24, trial49, 15, Robert Downey Jr, ID15_IM01.bmp, (300, 300), Elijah Wood, (-550, -100), Ben Stiller, (-300, 300), Leonardo DiCaprio, (550, -100), Daniel Radcliffe, (0, -400), Robert Downey Jr, [233. 300.], 1, 7.869070899992948
sub-24, trial38, 08, Hugh Jackman, ID08_IM01.bmp, (300, 300), Elijah Wood, (-300, 300), Daniel Craig, (0, -400), George Clooney, (-550, -100), Matt Damon, (550, -100), idk, [65. 60.], 0, 0.7042120000114664
sub-24, trial28, 18, Ryan Reynolds, ID18_IM01.bmp, (-300, 300), Ryan Gosling, (550, -100), Orlando Bloom, (0, -400), Elijah Wood, (-550, -100), Brad Pitt, (300, 300), Ryan Reynolds, [-287.  325.], 1, 3.8983791999926325
sub-24, trial15, 13, Orlando Bloom, ID13_IM02.bmp, (550, -100), Ben Affleck, (0, -400), George Clooney, (-300, 300), Justin Timberlake, (300, 300), Robert Pattinson, (-550, -100), idk, [87. 83.], 0, 0.5405129999853671
sub-24, trial4, 09, Justin Timberlake, ID09_IM02.bmp, (550, -100), Brad Pitt, (-300, 300), Orlando Bloom, (-550, -100), Keanu Reeves, (300, 300), Daniel Craig, (0, -400), Justin Timberlake, [496. -94.], 1, 4.538677099975757
sub-24, trial45, 03, Brad Pitt, ID03_IM02.bmp, (300, 300), Robert Pattinson, (-550, -100), Elijah Wood, (0, -400), Hugh Jackman, (550, -100), Ryan Gosling, (-300, 300), Brad Pitt, [295. 298.], 1, 5.268626300006872
sub-24, trial17, 09, Justin Timberlake, ID09_IM03.bmp, (-550, -100), Matt Damon, (550, -100), Leonardo DiCaprio, (0, -400), Brad Pitt, (-300, 300), Elijah Wood, (300, 300), Justin Timberlake, [-432.  -78.], 1, 1.4956865000131074
sub-24, trial52, 05, Daniel Radcliffe, ID05_IM03.bmp, (-550, -100), Hugh Jackman, (0, -400), Matt Damon, (300, 300), George Clooney, (550, -100), Patrick Dempsey, (-300, 300), Daniel Radcliffe, [-432.  -78.], 1, 3.2831854000105523
sub-24, trial64, 01, Ben Affleck, ID01_IM04.bmp, (-300, 300), Ryan Reynolds, (0, -400), Patrick Dempsey, (550, -100), Keanu Reeves, (-550, -100), Elijah Wood, (300, 300), idk, [-49.  42.], 0, 0.9085996999929193
sub-24, trial5, 12, Matt Damon, ID12_IM01.bmp, (-300, 300), Hugh Jackman, (550, -100), Orlando Bloom, (-550, -100), Leonardo DiCaprio, (300, 300), Ryan Gosling, (0, -400), idk, [-44.  47.], 0, 3.3576122999947984
sub-24, trial58, 07, George Clooney, ID07_IM01.bmp, (-300, 300), Robert Downey Jr, (300, 300), Ben Stiller, (-550, -100), Brad Pitt, (0, -400), Ryan Reynolds, (550, -100), George Clooney, [-271.  307.], 1, 1.0130437999905553
sub-24, trial8, 07, George Clooney, ID07_IM03.bmp, (550, -100), Matt Damon, (0, -400), Keanu Reeves, (-300, 300), Daniel Craig, (-550, -100), Robert Pattinson, (300, 300), George Clooney, [535. -93.], 1, 2.227088299987372
sub-24, trial70, 11, Leonardo DiCaprio, ID11_IM03.bmp, (550, -100), Matt Damon, (300, 300), Elijah Wood, (-550, -100), Daniel Craig, (0, -400), Orlando Bloom, (-300, 300), Leonardo DiCaprio, [516. -91.], 1, 2.3914151999924798
sub-24, trial6, 18, Ryan Reynolds, ID18_IM04.bmp, (0, -400), Brad Pitt, (300, 300), Ryan Gosling, (-300, 300), Daniel Craig, (-550, -100), Robert Downey Jr, (550, -100), Ryan Reynolds, [ 138. -388.], 1, 1.9337936000083573
sub-24, trial40, 12, Matt Damon, ID12_IM03.bmp, (550, -100), Robert Downey Jr, (-300, 300), Leonardo DiCaprio, (300, 300), Robert Pattinson, (-550, -100), Ryan Reynolds, (0, -400), idk, [80. 42.], 0, 1.711172000010265
sub-24, trial35, 03, Brad Pitt, ID03_IM01.bmp, (-550, -100), Robert Downey Jr, (0, -400), Patrick Dempsey, (300, 300), Orlando Bloom, (550, -100), Robert Pattinson, (-300, 300), Brad Pitt, [-453.  -81.], 1, 9.840529900015099
sub-24, trial20, 10, Keanu Reeves, ID10_IM04.bmp, (0, -400), Patrick Dempsey, (300, 300), Ryan Gosling, (-550, -100), Justin Timberlake, (550, -100), Ryan Reynolds, (-300, 300), idk, [-102.   36.], 0, 0.8757201000116765
